acc_x, acc_y, angular_z, stamp, 
-0.013842105865478516, 0.009955644607543945, -1.1583381269328231e-10, 1707438691410438028
-0.008332371711730957, 0.015263974666595459, -1.4631232566291544e-10, 1707438691420547758
0.013255178928375244, 0.0046079158782958984, 2.9984840535339707e-06, 1707438691430486408
0.03128659725189209, 0.004420101642608643, -1.3905910779777575e-10, 1707438691440560851
0.034811198711395264, 0.029627501964569092, -1.378800771895322e-10, 1707438691450500997
0.029337406158447266, -0.00988471508026123, 2.8814627804019666e-06, 1707438691460843368
0.011302947998046875, -0.029673099517822266, -8.208474246543682e-11, 1707438691472794634
0.02019059658050537, -0.022502601146697998, -1.242854120334539e-10, 1707438691480585527
-0.014032185077667236, -0.0008514523506164551, -1.0988069061702576e-10, 1707438691490565120
-0.02305281162261963, -0.004399657249450684, -1.2077438089891248e-10, 1707438691500606091
0.009174168109893799, -0.01314091682434082, -1.1569478125479525e-10, 1707438691510731626
-0.019460439682006836, 0.0026584267616271973, -1.2847679467312014e-10, 1707438691520642460
-0.006981313228607178, 0.008381962776184082, -1.3632419129054985e-10, 1707438691529737306
0.003848552703857422, -0.006168723106384277, -1.2246502297304027e-10, 1707438691540662996
-0.00883561372756958, 0.0068247318267822266, -1.1508708847410672e-10, 1707438691551973767
0.014571785926818848, -0.002393364906311035, -1.458031427505646e-10, 1707438691560608805
-0.00524449348449707, -0.011160135269165039, -1.3468002701974453e-10, 1707438691570644907
0.02170395851135254, 0.0084572434425354, 2.9532855506065273e-06, 1707438691580735711
0.010809361934661865, -0.009244561195373535, -1.3639562630768005e-10, 1707438691590733742
0.021533608436584473, -0.011091113090515137, -1.2646107118069722e-10, 1707438691600846724
0.014271676540374756, 0.019394516944885254, -1.0859125696943377e-10, 1707438691610827942
-0.03251117467880249, -0.0001965165138244629, -1.021499296598545e-10, 1707438691620934750
-0.052188992500305176, -0.0074923038482666016, -9.236568889135965e-11, 1707438691631982416
-0.0018817782402038574, 0.006967604160308838, 3.856879813503458e-06, 1707438691639709208
-0.003625214099884033, 0.01231241226196289, -1.1037330954577676e-10, 1707438691650762718
-0.0018391609191894531, -0.005468428134918213, -9.74976188057482e-11, 1707438691663158891
0.010785698890686035, -0.0037671327590942383, -1.5326369583723659e-10, 1707438691670915867
0.025107502937316895, 0.012491345405578613, -1.1651406884988162e-10, 1707438691680786534
-0.001801908016204834, 0.008722186088562012, -1.235820394657502e-10, 1707438691689838956
0.010744094848632812, -0.00207597017288208, 2.993645034070073e-06, 1707438691699793791
0.04478937387466431, -0.007509469985961914, -7.805415032894659e-11, 1707438691712631247
0.01950627565383911, -0.009215354919433594, -1.0058359534162255e-10, 1707438691720796090
-0.005728542804718018, 0.005127429962158203, -7.390234748607706e-11, 1707438691730889228
-0.018368780612945557, -0.0020368099212646484, -5.595473532133179e-11, 1707438691743211787
0.01571023464202881, -0.0021500587463378906, -7.237776861512216e-11, 1707438691750856919
0.006616950035095215, -0.014599859714508057, -4.843697783961691e-11, 1707438691760861636
-0.015020310878753662, 0.003476262092590332, -4.910584713338886e-11, 1707438691770887762
0.015449881553649902, 0.008829057216644287, -3.727709366872803e-11, 1707438691780888172
-0.015143930912017822, 0.019626259803771973, -2.946304355287895e-11, 1707438691792382986
0.008136510848999023, 0.012446105480194092, -2.5437774772221956e-11, 1707438691800923467
0.024271488189697266, 0.026538610458374023, -1.743945977587231e-11, 1707438691810962713
0.058173298835754395, 0.023036301136016846, -2.4238824670985546e-06, 1707438691823258023
-0.003036201000213623, -0.0022306442260742188, 4.069033410100795e-12, 1707438691830943033
0.030941486358642578, 0.017285585403442383, 1.0109015132289098e-11, 1707438691841002279
0.03610038757324219, -0.0007630586624145508, 1.4701872504777828e-11, 1707438691850965959
-5.692243576049805e-05, -0.015110909938812256, 1.4099284367602873e-11, 1707438691861161167
0.0033332109451293945, -0.03128182888031006, 1.9512411033748182e-11, 1707438691871968356
-0.0004353523254394531, -0.004374802112579346, 2.431459116831166e-11, 1707438691880997994
0.006553471088409424, -0.007909417152404785, 2.0763061775273304e-11, 1707438691891307402
-0.03125864267349243, -0.013364017009735107, 2.7808029048390743e-11, 1707438691903809566
-0.025948643684387207, -0.007924139499664307, -4.055337578425448e-06, 1707438691911158407
0.0045239925384521484, -0.0043405890464782715, 4.21455071365064e-11, 1707438691921068131
-0.017092466354370117, 0.017290174961090088, 3.380415239349925e-11, 1707438691931085064
0.008026361465454102, 0.0028371214866638184, 4.5120491471732826e-11, 1707438691941088956
0.022322773933410645, 0.002805769443511963, 3.5760772959410733e-11, 1707438691951974632
0.036570966243743896, 0.006357312202453613, -3.271919132180732e-06, 1707438691961083009
0.02558314800262451, -0.016791462898254395, 4.1799574393502225e-11, 1707438691971106411
-0.0014660954475402832, -0.02584284543991089, 4.7938982973479917e-11, 1707438691984197730
0.0037859082221984863, -0.013210594654083252, 1.0347261982967544e-10, 1707438691991161699
-0.010724127292633057, 0.004905104637145996, -2.9811867111702436e-06, 1707438692001158231
-0.00540471076965332, -0.014872372150421143, 8.602951016711577e-11, 1707438692011188346
0.008853733539581299, -0.00040715932846069336, 1.2282891196688586e-10, 1707438692021209998
-0.02354365587234497, -0.025423169136047363, -2.7501343378185672e-06, 1707438692032046213
-0.027125775814056396, -0.018204927444458008, 1.5639520838738548e-10, 1707438692041227650
-0.012760281562805176, -0.018038392066955566, 1.6846777093502403e-10, 1707438692051383400
-0.016398072242736816, 0.009275197982788086, -1.4970865982631614e-06, 1707438692071284832
0.026718854904174805, 0.003837406635284424, 2.1674292408081428e-10, 1707438692081558635
0.01769387722015381, 0.0038830041885375977, -3.0346950734840443e-06, 1707438692091378463
-0.023665428161621094, -0.0013127923011779785, 2.2184475974507887e-10, 1707438692102136152
0.02481687068939209, -0.019308269023895264, 2.493056866109086e-10, 1707438692112409079
0.01397162675857544, 0.0023354291915893555, -3.5536724396885184e-06, 1707438692120794685
-0.01660943031311035, 0.009618639945983887, 2.6121534122385433e-10, 1707438692131405141
-0.005823194980621338, 0.007747769355773926, 2.0576219712787e-10, 1707438692144187139
0.0013124942779541016, -0.011868953704833984, -3.7936964184427074e-06, 1707438692152042125
-0.027397751808166504, -0.008243978023529053, 3.1035812284798507e-10, 1707438692161515520
-0.01482093334197998, -0.002673208713531494, 2.803012783038352e-10, 1707438692172042556
-0.009365439414978027, 0.00808948278427124, -2.9851587149848365e-06, 1707438692182025109
-0.0003561973571777344, 0.0028014779090881348, 2.7875939134038585e-10, 1707438692192079394
0.0032483339309692383, 0.004716217517852783, 2.797222505076941e-10, 1707438692202032517
0.033782958984375, 0.01185595989227295, -2.968015506808964e-06, 1707438692212072753
0.0013862252235412598, 0.04067760705947876, 5.165078561715179e-10, 1707438692232081782
0.010385096073150635, -0.0062255859375, -2.9657763230726363e-06, 1707438692242129744
0.008563876152038574, -0.0027175545692443848, 2.4324616969245493e-10, 1707438692252075434
-0.00046497583389282227, 0.0170251727104187, 2.413539061419649e-10, 1707438692262011193
0.008438587188720703, -0.017020881175994873, 2.3184012941149145e-10, 1707438692272382694
0.024576842784881592, -0.011820971965789795, -3.093811788606223e-06, 1707438692282014778
-0.00790095329284668, -0.0007513165473937988, 2.4594140520207e-10, 1707438692292165530
-0.0455554723739624, -0.008110880851745605, 1.966316713000923e-10, 1707438692304521470
-0.016778409481048584, -0.0063163042068481445, -3.851972228037656e-06, 1707438692312257795
-0.013121306896209717, -0.009925544261932373, 2.2478067165078906e-10, 1707438692322071334
0.0066454410552978516, 0.013527393341064453, 1.9942969632014954e-10, 1707438692332086023
-0.023802101612091064, 0.022426843643188477, -2.9910249024032272e-06, 1707438692342049288
0.03367871046066284, 0.008053600788116455, 1.8044158972099493e-10, 1707438692352406452
0.02290433645248413, -0.011795759201049805, 1.9114114013030104e-10, 1707438692362068933
-0.016639530658721924, -0.009875953197479248, 1.7342380715436797e-10, 1707438692372410528
0.010318636894226074, 0.0026015043258666992, -2.435626716795278e-06, 1707438692384645802
0.01567220687866211, -0.006364107131958008, 2.3614352920701305e-10, 1707438692392112696
-0.016710758209228516, -0.011563360691070557, 1.7297629451243924e-10, 1707438692402129346
-0.013064801692962646, -0.009866535663604736, 1.6846786878195684e-10, 1707438692412127641
-0.007683098316192627, -0.025851070880889893, -2.9926802168905365e-06, 1707438692422085442
-0.0004628300666809082, -0.018615007400512695, 1.741470328428102e-10, 1707438692432200834
0.008539140224456787, -0.023923039436340332, 1.8439078123097282e-10, 1707438692442096468
-0.021965861320495605, 0.013930857181549072, 1.8908752124129608e-10, 1707438692452165887
-0.036253392696380615, 0.02299940586090088, -2.423530397661015e-06, 1707438692464462237
0.006941854953765869, 0.01399683952331543, 2.1660673139583182e-10, 1707438692472132738
-0.036039769649505615, 0.006820797920227051, 1.493231401889088e-10, 1707438692482162951
-0.014368772506713867, 0.01943647861480713, 1.22461347421354e-10, 1707438692492149016
0.009112358093261719, 0.012149333953857422, 1.0365704137655926e-10, 1707438692502145865
0.03610938787460327, 0.01566791534423828, 9.526491461929579e-11, 1707438692512215774
0.037893056869506836, -0.007710754871368408, -3.0109874650287417e-06, 1707438692522113318
-0.010555803775787354, 0.0028908252716064453, 7.878695838658419e-11, 1707438692532354801
0.014546394348144531, 0.011911332607269287, 6.672925181711136e-11, 1707438692544657025
-0.0016265511512756348, 0.0010696053504943848, 1.0158706434447042e-10, 1707438692552223446
-0.005228638648986816, 0.00821608304977417, 7.064707028628987e-11, 1707438692562218973
-0.023148298263549805, -0.004440665245056152, 6.40446490049069e-11, 1707438692572296009
-0.03205680847167969, 0.006296038627624512, 5.5034457687685446e-11, 1707438692582224687
-0.024757027626037598, 0.024142324924468994, 3.735467953090699e-11, 1707438692592326211
-0.013850390911102295, 0.006057322025299072, 2.6314302158464262e-11, 1707438692602491050
-0.006597459316253662, -0.008201658725738525, -2.9708173602959447e-06, 1707438692612522685
0.007896184921264648, 0.006007492542266846, 7.845550402563245e-12, 1707438692624313681
0.02229321002960205, 0.004244744777679443, 6.864720058477355e-12, 1707438692632306022
-0.000984787940979004, -0.00843435525894165, 2.96799850042479e-12, 1707438692642207228
0.029536545276641846, -0.010195672512054443, 2.257108065293449e-12, 1707438692652215471
0.029542386531829834, -0.0031843185424804688, 3.0942344336890436e-12, 1707438692662177648
0.007888376712799072, 0.007746756076812744, 4.06444338151087e-12, 1707438692672407767
-0.004627346992492676, 0.0037974119186401367, 3.759084500483573e-12, 1707438692682211101
0.006024956703186035, -0.010307550430297852, 5.2481366755974926e-12, 1707438692692233143
-0.03337752819061279, 0.023583590984344482, 4.088510016649597e-12, 1707438692704191893
-0.03337752819061279, 0.023583590984344482, 3.0945130165832757e-12, 1707438692712264074
-0.01709461212158203, -0.012507140636444092, 9.314726324907335e-13, 1707438692722230491
-0.002707242965698242, 0.007408440113067627, -7.29697202909991e-13, 1707438692732239190
-0.00799560546875, 0.027028322219848633, -4.0528998534697834e-13, 1707438692742216191
0.004611968994140625, -0.005245506763458252, -4.602379306946322e-13, 1707438692752313844
0.01186072826385498, 0.007196962833404541, -3.294648428719408e-13, 1707438692762200632
0.024389564990997314, -0.005256235599517822, 2.3127728605684142e-12, 1707438692772523264
0.03516340255737305, 0.0071062445640563965, 1.6024172147536705e-12, 1707438692784299345
0.00815039873123169, -0.025183677673339844, 1.9508431759629287e-12, 1707438692792426824
0.002765357494354248, 0.012298405170440674, 7.545668110067815e-13, 1707438692802311801
-0.013480424880981445, 0.010626494884490967, 9.588060655340155e-14, 1707438692812316336
0.004495024681091309, -0.009332835674285889, 4.410553165808579e-14, 1707438692822285410
0.011616945266723633, -0.009304225444793701, -5.58250225270675e-13, 1707438692832403491
0.004346609115600586, -0.023536622524261475, -3.648624565991159e-12, 1707438692842312523
-0.0010909438133239746, -0.018094539642333984, -1.6371777657587126e-12, 1707438692852334582
-0.011918485164642334, 0.012549400329589844, -1.4474413371933251e-12, 1707438692864586851
0.007811129093170166, 0.017905354499816895, -4.735808965300736e-12, 1707438692872367684
0.004169344902038574, 0.01611781120300293, -6.29107145470324e-12, 1707438692882192476
-0.02098315954208374, -0.0018584132194519043, -5.967591481798772e-12, 1707438692892261964
0.007750391960144043, -0.005506157875061035, -6.10718119697103e-12, 1707438692902194642
0.04183441400527954, -0.01101154088973999, -4.163639921565071e-12, 1707438692912271216
0.012960612773895264, 0.01248079538345337, -7.62192270620179e-12, 1707438692922202043
0.03620767593383789, 0.015914320945739746, -7.90202790510304e-12, 1707438692932511349
0.023464620113372803, 0.0015380382537841797, -1.52996294457381e-11, 1707438692944599829
0.0071059465408325195, -0.0037636160850524902, -5.903963603390812e-11, 1707438692962271719
-0.0003533363342285156, -0.025394678115844727, -2.947923810781839e-06, 1707438692972381403
-0.0399286150932312, -0.0110321044921875, -3.431727785689896e-11, 1707438692982286490
-0.029125750064849854, 0.003188490867614746, -2.3982482434344722e-11, 1707438692992499205
-0.02549922466278076, 0.02107691764831543, -2.4367785587879213e-11, 1707438693002322768
0.008646488189697266, 0.012008130550384521, -4.018643959141116e-11, 1707438693012339557
-0.029102206230163574, 0.040921568870544434, -3.191675647030702e-11, 1707438693024367223
-0.0011603832244873047, 0.010583460330963135, 0.0, 1707438693032328269
0.04710280895233154, 0.017497718334197998, 0.001217186118921934, 1707438693042366932
0.03777515888214111, 0.003270089626312256, 0.0013883482346979043, 1707438693052434456
0.02341175079345703, -0.009245038032531738, -0.00019474368958026858, 1707438693062381644
0.00726473331451416, -0.00019812583923339844, -0.0001928684157412245, 1707438693072425574
0.019872069358825684, -0.003833472728729248, 0.000876675642230941, 1707438693082386018
0.17020303010940552, 0.019919216632843018, 0.005618900078489665, 1707438693092474244
0.6814504265785217, 0.10096985101699829, 0.037180585987732925, 1707438693104186849
1.136288046836853, 0.562603771686554, 0.14087410797374925, 1707438693112616184
1.2617651224136353, 0.15132802724838257, 0.20427520152062828, 1707438693121674493
1.4324437379837036, -0.043224036693573, 0.20035059282912063, 1707438693132494334
1.1552722454071045, 0.2279127836227417, 0.22986922056609677, 1707438693142431425
0.9151625037193298, 0.4554378390312195, 0.2393058433423367, 1707438693152519387
0.8917588591575623, 0.0278167724609375, 0.25523851976390705, 1707438693162482262
1.0552797317504883, -0.35609185695648193, 0.268832278451345, 1707438693172509124
1.0829254388809204, -0.23656350374221802, 0.2348614818243059, 1707438693184668759
0.9050919413566589, 0.0373610258102417, 0.3690217509859338, 1707438693192498934
0.5297282934188843, -0.071144700050354, 0.28642090653841057, 1707438693202554301
0.1357784867286682, -0.02532482147216797, 0.2942488066097713, 1707438693212604485
0.3334572911262512, 0.3369676470756531, 0.3178428183303824, 1707438693222533005
0.5507396459579468, 0.48378610610961914, 0.334495845201096, 1707438693232622761
0.6770272254943848, 0.12871092557907104, 0.3553332004838743, 1707438693242559258
0.7289247512817383, 0.10336154699325562, 0.3631692810938642, 1707438693252635389
0.644389808177948, 0.09300798177719116, 0.3299799014319889, 1707438693264228766
0.7501556873321533, 0.15962129831314087, 0.47429179447520414, 1707438693272608504
0.6413043141365051, 0.11241251230239868, 0.40859287165611735, 1707438693282623380
0.48232054710388184, 0.013626039028167725, 0.47330204710264945, 1707438693291689891
0.5921399593353271, 0.09413027763366699, 0.41578695220113654, 1707438693302659570
0.4298480749130249, 0.32951444387435913, 0.4764510667251698, 1707438693312864968
0.24694335460662842, 0.20164257287979126, 0.5225958928474942, 1707438693322642058
0.5129535794258118, 0.24894338846206665, 0.581651750944623, 1707438693331698357
0.7688683867454529, 0.4049457907676697, 0.4238928182379535, 1707438693344329835
1.1182690858840942, 0.6455754637718201, 0.6505696855991489, 1707438693352723997
0.8706781268119812, 0.38236433267593384, 0.6261785442448812, 1707438693361693140
0.2692970633506775, -0.09060746431350708, 0.5276676843271487, 1707438693372772257
0.37110501527786255, -0.2628430128097534, 0.6188014910160912, 1707438693382731031
0.5638938546180725, 0.13585543632507324, 0.6398769347667151, 1707438693392865546
0.9903878569602966, 0.37683534622192383, 0.6697791600856958, 1707438693402761499
0.8933440446853638, -0.19669735431671143, 0.6606409995854027, 1707438693412796911
0.3853398561477661, -0.21744120121002197, 0.5807963214456395, 1707438693424202958
0.0740131139755249, 0.7746617794036865, 0.7780461671139275, 1707438693432770248
0.32862961292266846, 1.0293546915054321, 0.6610158550203898, 1707438693443056016
0.72390216588974, 0.1345939040184021, 0.5914975696676589, 1707438693455259707
0.8575468063354492, 0.10444164276123047, 1.015746358684094, 1707438693462803352
1.2965257167816162, 0.32231950759887695, 0.7723629514791763, 1707438693472887424
0.46817195415496826, 0.271048367023468, 0.7570587274512054, 1707438693482869754
-0.21992307901382446, 0.1719837784767151, 0.8256304715307095, 1707438693491832487
-0.22396588325500488, -0.1280924677848816, 0.6082201147653303, 1707438693504106418
0.3460301160812378, -0.21199268102645874, 0.9693915990036454, 1707438693511887442
1.0381596088409424, 0.5723376870155334, 0.6727024618312877, 1707438693522904043
0.5030998587608337, 0.44508522748947144, 0.5838203431265165, 1707438693535324128
0.3168331980705261, 0.17167413234710693, 0.9604897073692148, 1707438693542874298
0.2312793731689453, 0.10284841060638428, 0.7314161247825104, 1707438693552956681
0.4550865888595581, 0.07856100797653198, 0.7385236513977873, 1707438693562949316
0.3691231608390808, 0.28810060024261475, 0.715914593346015, 1707438693572980752
-0.05989229679107666, 0.3894878625869751, 0.6244987643782651, 1707438693584292854
-0.090201735496521, -0.033852338790893555, 0.8045516686521084, 1707438693593080529
-0.11959695816040039, 0.0829925537109375, 0.7071985799257756, 1707438693603048580
-0.03840184211730957, 0.7095598578453064, 0.5633581311752655, 1707438693615544144
-0.15368127822875977, 0.3605453372001648, 0.9430419037816922, 1707438693623055468
0.00706714391708374, -0.13701355457305908, 0.7206829710679236, 1707438693633099158
0.6803966760635376, 0.1631672978401184, 0.7528678363930927, 1707438693643040315
-0.07091736793518066, 0.5372433066368103, 0.7565560529975878, 1707438693653071219
-0.23439311981201172, 0.2694721817970276, 0.6867743989809413, 1707438693664141886
-0.3225686550140381, 0.057482004165649414, 0.8507186451764142, 1707438693673084943
-0.4142288565635681, -0.20758962631225586, 0.7610987765830955, 1707438693683097537
-0.17550528049468994, 0.34264683723449707, 0.6178988787493794, 1707438693695544520
-0.158521831035614, 0.8620050549507141, 1.0102921074507016, 1707438693703136436
0.044959068298339844, 0.06041198968887329, 0.7655311650511034, 1707438693713141381
-0.0222398042678833, 0.06305068731307983, 0.7675929407353862, 1707438693723193217
-0.13654828071594238, 0.3074861168861389, 0.7753069459507296, 1707438693733150207
-0.3118865489959717, 0.465654194355011, 0.684358724183162, 1707438693744477673
-0.10943526029586792, 0.5407768487930298, 0.8846906985753061, 1707438693753157388
-0.35745030641555786, -0.2009352445602417, 0.7565191855482618, 1707438693763181725
0.21572327613830566, -0.3196183443069458, 0.6059103937008835, 1707438693775964745
0.5154116749763489, 0.3421075940132141, 1.047873210333421, 1707438693783412668
0.12361693382263184, 0.3430027961730957, 0.7799877570590692, 1707438693793272148
-0.1124148964881897, 0.36814606189727783, 0.7549497274914929, 1707438693803315677
-0.28851592540740967, -0.025103747844696045, 0.7427290434136627, 1707438693813467382
-0.09297150373458862, 0.29680055379867554, 0.687823142036214, 1707438693824607858
0.23264914751052856, 0.9345611929893494, 0.886090067404638, 1707438693833285932
-0.11783826351165771, 0.19839239120483398, 0.765989683936263, 1707438693843289211
-0.25087910890579224, -0.08486431837081909, 0.5950601051605076, 1707438693856312793
-0.03836292028427124, 0.3992941975593567, 1.1064628337888853, 1707438693863268886
0.49775081872940063, 0.15176737308502197, 0.7403339660937628, 1707438693873574602
0.42510175704956055, 0.18146252632141113, 0.7710191370834033, 1707438693883366787
-0.3709510564804077, -0.13997995853424072, 0.7434480344176305, 1707438693893343409
-0.4873536229133606, 0.3048850893974304, 0.682385924774624, 1707438693904261248
0.1798309087753296, 1.0463573932647705, 0.8189236997646473, 1707438693913334169
0.5753259658813477, 0.007174551486968994, 0.7271117166755972, 1707438693923521432
0.33727675676345825, -0.22245758771896362, 0.5910820601252524, 1707438693936232017
-0.16567599773406982, 0.28241395950317383, 1.0552943140176358, 1707438693943350476
-0.3151453137397766, 0.5273461937904358, 0.7460877723367461, 1707438693953425043
-0.357967734336853, 0.603644847869873, 0.7477984281298553, 1707438693963427598
-0.8262388706207275, 0.26603448390960693, 0.7230905773387019, 1707438693973663756
-0.4232122302055359, -0.2149585485458374, 0.6833752676178723, 1707438693984671637
0.19335252046585083, 0.1976919174194336, 0.8732330525344445, 1707438693993427015
0.49727779626846313, 0.07733261585235596, 0.7744110662047372, 1707438694003480715
0.2623516917228699, 0.2550048828125, 0.6419213082862782, 1707438694015681602
-0.17340660095214844, 0.518985390663147, 0.9893250451786969, 1707438694023449513
-0.6064561605453491, 0.17092329263687134, 0.7578259411469541, 1707438694033536987
-0.41749393939971924, 0.3601464629173279, 0.7538324965418053, 1707438694043506164
0.15721344947814941, 0.30544471740722656, 0.7359869939094335, 1707438694053501192
0.7730416655540466, 0.26595568656921387, 0.6701145763137292, 1707438694064541626
0.6042201519012451, 0.6450999975204468, 0.8287309426945858, 1707438694073525033
-0.421680212020874, -0.10654217004776001, 0.7365288560686954, 1707438694083785388
-0.10225540399551392, -0.2655642032623291, 0.60716856397031, 1707438694096293720
0.19999730587005615, 0.08576875925064087, 1.0091423095469385, 1707438694103665788
0.13297200202941895, 0.22677093744277954, 0.7359323023222614, 1707438694113720900
0.18647116422653198, 0.10210025310516357, 0.7321665049082601, 1707438694123805004
-0.03702402114868164, 0.208487868309021, 0.7429493843412002, 1707438694133816651
-0.10520172119140625, 1.0206210613250732, 0.6922718259142961, 1707438694144624714
-0.14111292362213135, 0.6871424913406372, 0.9126506622619163, 1707438694152680727
0.03671044111251831, 0.06032305955886841, 0.6685406790203736, 1707438694163671592
0.30498141050338745, 0.17878997325897217, 0.5614091389941426, 1707438694176894009
-0.1543990969657898, 0.15457189083099365, 1.1104970585487242, 1707438694183626785
-0.0757870078086853, 0.6388742923736572, 0.8333505094614353, 1707438694192693609
-0.4324166774749756, 0.13735848665237427, 0.6780857981057126, 1707438694203820071
-0.2173425555229187, -0.7575306296348572, 0.7544007134026837, 1707438694213937472
0.16489750146865845, 0.21825438737869263, 0.758909754069805, 1707438694224228753
0.3152082562446594, 0.9887403249740601, 0.9192177235347887, 1707438694232713433
0.23270994424819946, 0.7943682074546814, 0.7085678856948964, 1707438694243742159
-0.22264879941940308, -0.028017640113830566, 0.6233394489717057, 1707438694256329392
-0.1359039545059204, -0.6587014198303223, 1.064323439324091, 1707438694263732385
-0.07260555028915405, 0.5251083970069885, 0.793091414779601, 1707438694273805811
-0.35703885555267334, 1.200333595275879, 0.7838174308324393, 1707438694283833545
-0.3567625880241394, -0.03874862194061279, 0.7743632765611336, 1707438694293804375
0.04550713300704956, -0.5620445013046265, 0.7447224526013293, 1707438694304202999
0.049384474754333496, -0.16103559732437134, 0.8103733066690615, 1707438694313818341
-0.009715855121612549, 1.076934576034546, 0.7834231056366882, 1707438694323826159
0.1232866644859314, 1.243038296699524, 0.600426313839399, 1707438694336650931
-0.23536521196365356, -0.7532776594161987, 1.0766049765226586, 1707438694343823554
-0.007054686546325684, -0.6962169408798218, 0.8821435663637136, 1707438694352898148
0.4223862886428833, 0.7025312185287476, 0.7282524539244983, 1707438694363867541
0.01889050006866455, 0.9777519106864929, 0.8333856266333951, 1707438694373171229
-0.4289383888244629, 0.4892093539237976, 0.7176659415586575, 1707438694383646465
-0.2988462448120117, -0.5327914357185364, 0.804199354766955, 1707438694392901930
0.22017937898635864, -0.4123747944831848, 0.6761610983408657, 1707438694404172494
0.16561806201934814, 1.1273735761642456, 0.6250887294093048, 1707438694416279318
-0.3605821132659912, 0.7761322259902954, 0.9591566109394516, 1707438694423939565
-0.21259772777557373, 0.3443923592567444, 0.7283760563036277, 1707438694433999717
0.3602427840232849, -0.1250048279762268, 0.7481020221367568, 1707438694443980014
0.4283245801925659, -0.010832369327545166, 0.7672757510427808, 1707438694454031345
0.13441699743270874, 0.8191478252410889, 0.722137316823956, 1707438694464628270
-0.3899482488632202, 0.3554394245147705, 0.7839060141603081, 1707438694474073246
-0.21669262647628784, -0.4804611802101135, 0.7436343372167136, 1707438694484017772
0.07573056221008301, -0.12616801261901855, 0.5959144166955971, 1707438694496389457
0.17282110452651978, 0.6037698984146118, 0.9511125706416885, 1707438694504091388
0.5428876876831055, 0.6881341338157654, 0.7353636165051626, 1707438694514065758
0.08581984043121338, -0.04156213998794556, 0.7346213589123355, 1707438694524113381
-0.23023539781570435, -0.566950798034668, 0.7617032826793007, 1707438694534070868
-0.18882590532302856, 0.5084559917449951, 0.7478349082009502, 1707438694544247992
-0.048987507820129395, 0.804749608039856, 0.7328800690019844, 1707438694554414711
-0.38292694091796875, 0.15348213911056519, 0.7618334192040285, 1707438694564106193
-0.06795001029968262, -0.1268996000289917, 0.6028574295698005, 1707438694576290088
0.3278003931045532, 0.1406872272491455, 0.941881845012817, 1707438694584126924
0.43249332904815674, 0.8029444217681885, 0.7319827642564937, 1707438694594211000
-0.13184422254562378, 0.7115271091461182, 0.7120697053180005, 1707438694604465390
-0.4620993733406067, -0.3086049556732178, 0.7467810153749055, 1707438694614275123
0.11319839954376221, 0.47304195165634155, 0.7075856218510171, 1707438694624660839
0.07571226358413696, 0.5504039525985718, 0.7650483468535694, 1707438694634254153
-0.1431700587272644, 0.3679548501968384, 0.7318922915958878, 1707438694644221581
-0.18205970525741577, 0.0064348578453063965, 0.5736732374844682, 1707438694656796498
-0.20900100469589233, -0.1006007194519043, 0.9738408918053368, 1707438694664253189
-0.05259960889816284, 0.1542251706123352, 0.7277617562667261, 1707438694674364980
-0.12768083810806274, 0.08404368162155151, 0.7479192335917252, 1707438694684318296
0.09644681215286255, 0.39754629135131836, 0.7686815094990019, 1707438694694267512
-0.06606703996658325, 0.5047990679740906, 0.7755161856099846, 1707438694704358325
0.19470304250717163, 0.1793001890182495, 0.7922353610794385, 1707438694714338414
0.19495898485183716, 0.6033477187156677, 0.794775278080891, 1707438694724284263
-0.08255553245544434, 0.22723209857940674, 0.6160429688975093, 1707438694736865601
-0.013819456100463867, 0.25730979442596436, 1.0207782929476004, 1707438694744311036
0.003999829292297363, 0.44712305068969727, 0.7393821231898536, 1707438694754372353
0.09882605075836182, -0.03777742385864258, 0.7262884194415389, 1707438694764474484
0.06385791301727295, 0.15705496072769165, 0.7414166601021811, 1707438694774436010
-0.02922576665878296, 0.2902573347091675, 0.7144246269741754, 1707438694784847361
-0.17702484130859375, 0.006615757942199707, 0.8013212234381224, 1707438694794377099
-0.026746809482574463, 0.2885509133338928, 0.7787090996166952, 1707438694804418555
-0.0018318891525268555, 0.11653399467468262, 0.6589104377857972, 1707438694816258876
0.3378913998603821, 0.03433316946029663, 0.9558104466561279, 1707438694824398350
-0.1917515993118286, 0.502303421497345, 0.7633353637951213, 1707438694834443692
-0.46662986278533936, 0.3859725594520569, 0.7502543091277641, 1707438694844442616
-0.08640158176422119, 0.8192930221557617, 0.7370666946878165, 1707438694854469557
-0.18796050548553467, 0.2316187024116516, 0.7284735393261437, 1707438694864512919
-0.08904963731765747, -0.4946383237838745, 0.7357671252951741, 1707438694874661590
0.2975287437438965, 0.2620159983634949, 0.75404729718615, 1707438694884775430
0.06367456912994385, 0.08402174711227417, 0.6614878296129793, 1707438694896319599
-0.06863385438919067, 0.21664708852767944, 0.9192822226263452, 1707438694904522385
-0.11152797937393188, 0.6252801418304443, 0.7281809233857043, 1707438694914531431
0.07048553228378296, 0.09052544832229614, 0.7166969198356304, 1707438694924551826
0.14086061716079712, 0.3385302424430847, 0.7089796366167931, 1707438694934598768
-0.2525111436843872, 0.0982673168182373, 0.696658765341312, 1707438694944632697
-0.31272226572036743, 0.3954102396965027, 0.7058118440105156, 1707438694954590174
0.10916906595230103, 0.965168833732605, 0.711733221568391, 1707438694964578989
0.4344015121459961, -0.24640172719955444, 0.5990138187102448, 1707438694976739198
0.3485821485519409, -0.39736390113830566, 0.9510052753825712, 1707438694984627596
-0.2450311779975891, 0.41247397661209106, 0.7442799751995195, 1707438694994654864
-0.40978121757507324, 0.1543596386909485, 0.7297770691423936, 1707438695014734608
-0.2859850525856018, 0.026442527770996094, 0.727348525443427, 1707438695024664845
0.613328218460083, 0.31448155641555786, 0.7374885990590934, 1707438695034654342
0.8349353075027466, 0.9643023014068604, 0.8180971352160414, 1707438695043688066
-0.06168484687805176, 0.41621363162994385, 0.5801219322170356, 1707438695056368058
-0.3320885896682739, -0.19629937410354614, 0.8823803265529413, 1707438695064717655
-0.12933093309402466, 0.042588770389556885, 0.7241645177620373, 1707438695074789817
-0.11491173505783081, 0.48895931243896484, 0.7384414674073968, 1707438695094777566
0.14535486698150635, -0.05726587772369385, 0.7454561994646449, 1707438695104837231
0.29576367139816284, -0.5220286250114441, 0.7543582914268911, 1707438695114989025
0.054527103900909424, 0.7005425095558167, 0.7708199528005177, 1707438695124873843
-0.3463488221168518, 0.368990957736969, 0.6124327168991474, 1707438695137167930
0.07382738590240479, -0.18211007118225098, 1.1130688375850877, 1707438695143923373
0.28941595554351807, -0.1931867003440857, 0.6956957328588722, 1707438695154794195
0.11859416961669922, 0.7112188339233398, 0.5792218940139583, 1707438695168156786
-0.2045082449913025, 0.8697615265846252, 1.1456186679369917, 1707438695174907016
-0.2997080683708191, -0.362637996673584, 0.7618704404200779, 1707438695184881564
0.1195104718208313, -0.2367541790008545, 0.7532887882009838, 1707438695194964032
0.38514530658721924, 0.4493999481201172, 0.7626838386194225, 1707438695204874071
0.1494755744934082, 0.8104203939437866, 0.648787794502403, 1707438695216404932
-0.457608163356781, 0.5159005522727966, 0.8715309330856312, 1707438695224871090
-0.476473867893219, -0.5298488140106201, 0.7287074704058797, 1707438695234925064
0.07226163148880005, -0.20035147666931152, 0.782668383938523, 1707438695254233302
0.03863823413848877, 0.5549923181533813, 0.7885012017435566, 1707438695263969243
0.04866135120391846, -0.03292030096054077, 0.7017051769250584, 1707438695275051655
-0.004896759986877441, -0.26045548915863037, 0.787077581862123, 1707438695284964380
-0.11818009614944458, 0.36658036708831787, 0.6343666242150995, 1707438695297365685
-0.09884387254714966, 1.2128145694732666, 1.0278542344873698, 1707438695304951545
-0.15432780981063843, 0.16444355249404907, 0.7552527298571343, 1707438695315077345
0.18999266624450684, -0.5543933510780334, 0.6656425881404452, 1707438695326719507
0.23892229795455933, -0.02100008726119995, 0.9370791737607768, 1707438695335018190
0.13850682973861694, 0.5663482546806335, 0.7626006390614086, 1707438695345065545
-0.06570452451705933, 0.7781028151512146, 0.7532161371921977, 1707438695355102374
-0.4570689797401428, 0.17055994272232056, 0.7393184399946071, 1707438695365199180
-0.19326794147491455, -0.2883063554763794, 0.6839545276644291, 1707438695376318733
0.3438083529472351, 0.7059048414230347, 0.8832470460041443, 1707438695385094601
0.39960044622421265, 0.34774869680404663, 0.7730509210367273, 1707438695395128398
-0.037566184997558594, -0.04315692186355591, 0.6123617894443368, 1707438695407862394
-0.10982608795166016, -0.041723668575286865, 1.0552185648766934, 1707438695415164624
-0.08348608016967773, -0.15187698602676392, 0.7636086526476544, 1707438695425199186
-0.11718398332595825, 0.4650968909263611, 0.7632325910818769, 1707438695435184523
-0.2947102189064026, 0.7698792815208435, 0.7438529584166281, 1707438695445155947
-0.048960089683532715, 0.0011592507362365723, 0.6590149906627568, 1707438695456363129
0.16423028707504272, 0.07877916097640991, 0.8417085029642426, 1707438695465221609
-0.19155371189117432, 0.06067007780075073, 0.7484384630711869, 1707438695475247643
0.08479863405227661, 0.8744086623191833, 0.5608533787643252, 1707438695488589688
0.4979104995727539, 1.0161453485488892, 1.1032973316671004, 1707438695495240995
0.17005926370620728, -0.3563900589942932, 0.7399473994524761, 1707438695505263647
-0.06464892625808716, -0.3113894462585449, 0.7505996069481794, 1707438695515338063
-0.2935107946395874, 0.33583521842956543, 0.7535072105080486, 1707438695525261393
-0.18895810842514038, 0.34092170000076294, 0.6635488017645447, 1707438695536389308
-0.4237547516822815, 0.29941755533218384, 0.8111517610762969, 1707438695545283824
-0.45653289556503296, -0.21221691370010376, 0.7160361233659699, 1707438695555332153
0.4800860285758972, -0.053090572357177734, 0.5649551325727933, 1707438695568323914
0.8046905398368835, 0.8402864336967468, 1.0373761065549054, 1707438695575359881
-0.013280928134918213, 0.27133142948150635, 0.734562351959226, 1707438695585362871
-0.47696489095687866, 0.029442250728607178, 0.7383177783985561, 1707438695595440549
-0.33765989542007446, 0.16144931316375732, 0.7493923078157287, 1707438695605431087
-0.08850324153900146, 0.21892958879470825, 0.6665457768303645, 1707438695616738624
0.36723893880844116, 0.686812162399292, 0.8507887506795957, 1707438695625447765
0.36720961332321167, 0.1631549596786499, 0.7268417009126255, 1707438695635642397
-0.3232167959213257, 0.06388849020004272, 0.6010395030015547, 1707438695648211080
-0.3232167959213257, 0.06388849020004272, 1.045413994651401, 1707438695655447119
-0.052940428256988525, 0.05154836177825928, 0.7593933651571485, 1707438695665481482
-0.11111181974411011, 0.1646045446395874, 0.7577012133316313, 1707438695675517265
-0.16042578220367432, -0.145380437374115, 0.7681162734237581, 1707438695685446167
0.2224852442741394, 0.2085723876953125, 0.7143842323503813, 1707438695696286153
0.03065335750579834, 0.31512773036956787, 0.8272100930361475, 1707438695705466779
0.040312767028808594, 0.2666289210319519, 0.7346883008371041, 1707438695715557063
0.1530514359474182, 0.7140526175498962, 0.5765662459542616, 1707438695728212835
0.11059695482254028, 0.3120105266571045, 0.986404464933441, 1707438695735515900
0.24161195755004883, 0.49846988916397095, 0.7308387353538417, 1707438695745553015
-0.6201766729354858, 0.33658844232559204, 0.7420050784789072, 1707438695755576005
-0.5523003339767456, -0.3694767951965332, 0.7559405520129177, 1707438695765549084
-0.08735901117324829, -0.05048328638076782, 0.6971718834998413, 1707438695776658234
0.1076703667640686, 0.35275232791900635, 0.8770126131573138, 1707438695785558107
0.24035245180130005, 0.3737914562225342, 0.7784895178337248, 1707438695795595343
0.09318667650222778, 0.769591748714447, 0.581464665956607, 1707438695808855176
-0.37465983629226685, 0.08370417356491089, 1.1152030743024923, 1707438695815633239
-0.25727224349975586, 0.32007527351379395, 0.8362066837481218, 1707438695824688128
0.17590540647506714, 0.62493497133255, 0.7527487327332645, 1707438695834698582
0.20928537845611572, 0.1191205382347107, 0.698193585335732, 1707438695845653918
0.23184317350387573, 0.1669042706489563, 0.7205448767231575, 1707438695856664080
0.10936671495437622, -0.06169843673706055, 0.8872762434966347, 1707438695865663393
0.29703813791275024, -0.2645179033279419, 0.7728900179433721, 1707438695875965619
0.19729715585708618, 0.4269018769264221, 0.6372183330809775, 1707438695888199921
-0.5705994367599487, 0.5216429829597473, 1.158591225977535, 1707438695894707760
-0.3152238130569458, 0.29041844606399536, 0.6744612124549326, 1707438695905792231
0.2669791579246521, 0.26175034046173096, 0.7438350266580225, 1707438695915772800
0.07502150535583496, 0.029476404190063477, 0.7473665925435884, 1707438695925790356
0.26942259073257446, 1.0010020732879639, 0.6868170527173839, 1707438695936822316
-0.17527371644973755, 0.6283758878707886, 0.8445204737458674, 1707438695945781138
-0.15103542804718018, -0.3829076886177063, 0.7605078895490733, 1707438695955893791
0.12337827682495117, 0.16555941104888916, 0.5925861679482485, 1707438695968845002
0.16735845804214478, 0.48797452449798584, 1.079714889298648, 1707438695975843171
-0.03274834156036377, 0.46603357791900635, 0.7361896223400611, 1707438695986100131
-0.515903890132904, -0.19802111387252808, 0.7699536793634648, 1707438695995851668
-0.2577129602432251, -0.8309222459793091, 0.7579336699711289, 1707438696005874025
0.46967053413391113, 0.8553497791290283, 0.7149343412872546, 1707438696016370259
0.663732647895813, 1.1933910846710205, 0.7486197910489433, 1707438696026021889
-0.11702078580856323, -0.10542017221450806, 0.7377316908379673, 1707438696035914119
-0.24299848079681396, -0.48242688179016113, 0.6074558748932257, 1707438696048164677
-0.30942273139953613, -0.022986233234405518, 0.9672813305534346, 1707438696055910371
-0.40495163202285767, 0.9174472689628601, 0.7435870482626066, 1707438696065930463
-0.37098222970962524, 0.9886411428451538, 0.7260224659529384, 1707438696075974005
-0.05108720064163208, -0.2386188507080078, 0.7416258392028845, 1707438696085921720
0.7936530709266663, -0.2986232042312622, 0.7215926813859532, 1707438696096328952
0.5978456735610962, 0.4905829429626465, 0.762384248488646, 1707438696106076196
-0.4659930467605591, 0.843976616859436, 0.7189703470432642, 1707438696116307302
-0.6896296739578247, 0.3729477524757385, 0.5959384357560541, 1707438696128615777
0.17234867811203003, -0.47800666093826294, 0.9742015760168709, 1707438696136366970
0.5645808577537537, 1.0702396631240845, 0.788108582271127, 1707438696146144118
0.21100956201553345, 0.7647035717964172, 0.7491585124566182, 1707438696156181781
-0.08535271883010864, -0.13817524909973145, 0.7563395373817609, 1707438696166011082
-0.0669100284576416, -0.32576823234558105, 0.7333732247971222, 1707438696176336985
0.1534261703491211, 0.3343356251716614, 0.788348168382815, 1707438696186222021
0.25584590435028076, 1.221604824066162, 0.7940507443548108, 1707438696196081934
-0.20722955465316772, 0.19180971384048462, 0.6258510336146789, 1707438696208239675
-0.3087325692176819, -0.7374268174171448, 0.968510250618692, 1707438696216074969
0.11217755079269409, 0.17833727598190308, 0.7708937771692446, 1707438696226127642
0.16558688879013062, 1.0205440521240234, 0.7741813246274063, 1707438696236138071
0.18071967363357544, 1.0209141969680786, 0.7633421736872477, 1707438696246115543
-0.21167206764221191, 0.06957173347473145, 0.692165384188989, 1707438696256879515
0.061110496520996094, -0.6716288328170776, 0.8069579383362636, 1707438696266176600
0.04925358295440674, 0.5056775808334351, 0.7676241370769603, 1707438696276222142
-0.3630576729774475, 0.7525510787963867, 0.6387876877124476, 1707438696288236219
-0.1731742024421692, -0.15245115756988525, 0.9554432239473345, 1707438696296235107
0.11082887649536133, -0.2904619574546814, 0.7756032906226814, 1707438696306234646
0.1810472011566162, -0.19071990251541138, 0.7862088685780994, 1707438696316243743
0.37651771306991577, 0.7168397903442383, 0.7893976923064869, 1707438696326222109
-0.05026721954345703, 0.9988357424736023, 0.7042197393365022, 1707438696337004504
-0.44245415925979614, -0.17674440145492554, 0.8011512858342913, 1707438696346262354
-0.02457326650619507, 0.17268836498260498, 0.7475812589594396, 1707438696356293674
0.23561066389083862, 0.4156651496887207, 0.6342303758442163, 1707438696368150101
0.3731686472892761, 0.3058399558067322, 0.9287488468340243, 1707438696376285923
-0.12384164333343506, 0.35783302783966064, 0.7424915791278471, 1707438696386340001
-0.33058542013168335, -0.2569305896759033, 0.7337149751491211, 1707438696396375007
-0.11129140853881836, -0.10913646221160889, 0.7361220458841581, 1707438696406526324
0.36912548542022705, 0.642305850982666, 0.809639311335527, 1707438696415716386
0.3977730870246887, 0.3654916286468506, 0.6960000603607637, 1707438696426337640
0.08406591415405273, 0.42844682931900024, 0.7354986099597162, 1707438696436430650
-0.1673436164855957, -0.09915041923522949, 0.6640230807815972, 1707438696447688708
-0.41848987340927124, -0.08399921655654907, 0.8772610076366644, 1707438696456431017
-0.07161319255828857, 0.7471293807029724, 0.7671095684628537, 1707438696466448824
-0.13117575645446777, 0.12628298997879028, 0.7631551040566513, 1707438696476470874
0.00471186637878418, -0.047345876693725586, 0.7784232404782035, 1707438696486412533
-0.003401339054107666, 0.62762451171875, 0.7549962552896851, 1707438696496562278
0.24793267250061035, 0.270515501499176, 0.7763730870106448, 1707438696506431502
0.1739586591720581, 0.4462328553199768, 0.7515263188808479, 1707438696516656562
-0.34159064292907715, -0.008112311363220215, 0.6401595670605204, 1707438696528560607
-0.17978501319885254, 0.35014843940734863, 0.9670657297142203, 1707438696536481687
0.5938552618026733, 1.1315951347351074, 0.7498467792229001, 1707438696546513274
0.7207421064376831, -0.11147695779800415, 0.7402853792995301, 1707438696556558806
0.003693997859954834, -0.36525535583496094, 0.7588032057258707, 1707438696566485366
-0.4645443558692932, 0.15082448720932007, 0.730178066545001, 1707438696576831964
-0.42266005277633667, 0.11210298538208008, 0.7329344095501307, 1707438696587244626
-0.20005303621292114, 0.15839225053787231, 0.7576508432181698, 1707438696597268996
-0.2126414179801941, 0.2506169080734253, 0.6773773981164157, 1707438696608292489
0.14375507831573486, 0.1503591537475586, 0.8286190271373501, 1707438696617271992
0.4308834671974182, 0.8542882800102234, 0.7303107351583301, 1707438696627354589
-0.2620939016342163, 0.38787078857421875, 0.7967554376919005, 1707438696636669622
-0.21591484546661377, 0.33049583435058594, 0.7060315629867352, 1707438696647374734
-0.007287383079528809, -0.3225850462913513, 0.7667428013632008, 1707438696657338063
0.7603188157081604, 0.05741596221923828, 0.784311075971859, 1707438696667266582
0.2873973846435547, 0.16859906911849976, 0.7537408351384391, 1707438696677450160
0.035343289375305176, 0.19143235683441162, 0.6882456499936348, 1707438696688195070
-0.05038326978683472, 0.7980659008026123, 0.8063589795135696, 1707438696697199510
-0.2863825559616089, 0.19503146409988403, 0.7178463572443263, 1707438696707247626
-0.03324246406555176, -0.035118937492370605, 0.620745716600188, 1707438696719137984
0.4244198799133301, 0.3869946002960205, 0.9300341972371277, 1707438696727229009
-0.16490596532821655, 0.1395881175994873, 0.7445828735110546, 1707438696737413098
-0.4096897840499878, 0.20103305578231812, 0.7864917122292061, 1707438696747259369
-0.014505624771118164, 0.09771871566772461, 0.7650364521859047, 1707438696757415816
0.11658310890197754, 0.14214801788330078, 0.7511876666580358, 1707438696767682247
0.2721748352050781, 0.835114061832428, 0.7916512426359255, 1707438696777269417
-0.068148672580719, 0.41400688886642456, 0.7374399490170184, 1707438696787327029
0.19360727071762085, -0.041846394538879395, 0.6334467565717706, 1707438696799213874
-0.002532482147216797, 0.23749536275863647, 0.9559102398579881, 1707438696807313059
-0.08958876132965088, 0.1550135612487793, 0.7775402705826514, 1707438696817347867
0.24052798748016357, 0.5206660032272339, 0.7855695297399625, 1707438696827296491
-0.03082829713821411, 0.27837038040161133, 0.7587665432897274, 1707438696837388844
-0.15443360805511475, -0.376237690448761, 0.6843972005119989, 1707438696848503478
0.09971559047698975, 0.5134204626083374, 0.8444759418514075, 1707438696857439256
-0.043020427227020264, 0.6868922114372253, 0.7398177778371862, 1707438696867372450
0.08592462539672852, 0.34690654277801514, 0.6010584536913409, 1707438696879556963
0.1276766061782837, 0.015493929386138916, 0.9606205100268627, 1707438696887321085
0.24518394470214844, -0.38659918308258057, 0.7637133785198206, 1707438696897392686
0.31354445219039917, 0.3479282259941101, 0.7876536170190125, 1707438696907332596
-0.43908917903900146, 0.8126534819602966, 0.7446842464607594, 1707438696917637323
-0.5623472929000854, -0.06215238571166992, 0.7149998919570789, 1707438696928233808
-0.04782092571258545, -0.23514026403427124, 0.8230811883201239, 1707438696937392892
0.2633435130119324, 0.1486949920654297, 0.7462058163371803, 1707438696947376385
0.3373127579689026, 0.8484672904014587, 0.6075826684360178, 1707438696959484025
0.16261816024780273, 0.8497301340103149, 0.9089205273527076, 1707438696967432989
-0.18498295545578003, -0.49467557668685913, 0.7245640885538078, 1707438696977420472
-0.18025290966033936, -0.44142603874206543, 0.7496953968192593, 1707438696987352987
-0.10118454694747925, 0.7928211688995361, 0.7527543372566018, 1707438696997374460
-0.3493152856826782, 0.7336680889129639, 0.6963912427646727, 1707438697008309371
-0.07656580209732056, 0.07899993658065796, 0.8517422398668562, 1707438697017358879
0.2518502473831177, -0.3492170572280884, 0.7788426303367796, 1707438697027400034
0.603482723236084, -0.024278342723846436, 0.6318559842107703, 1707438697039861721
0.053228676319122314, 0.9949009418487549, 1.018782158753481, 1707438697047344581
-0.7942044734954834, 0.3349496126174927, 0.7300058016845354, 1707438697057421149
-0.26397186517715454, 0.1674758791923523, 0.7357449520466075, 1707438697067436186
0.37476372718811035, 0.30517297983169556, 0.7352190101866973, 1707438697077669485
0.9905305504798889, 0.24164223670959473, 0.6828519909669181, 1707438697089037589
0.13208407163619995, 0.5554735064506531, 0.9381655794191821, 1707438697097391450
-0.7620244026184082, 0.1160535216331482, 0.7602680147506535, 1707438697107653755
-0.0010172724723815918, -0.5369125008583069, 0.637118637553905, 1707438697119924880
-0.1563979983329773, 0.053512394428253174, 1.0201149626721189, 1707438697127461824
0.08546590805053711, 0.7534288763999939, 0.7359623493291148, 1707438697137622584
0.11871969699859619, 0.14135819673538208, 0.7233885311916198, 1707438697147746199
-0.25535106658935547, -0.6665789484977722, 0.711705950389291, 1707438697157928569
-0.004463672637939453, 0.3796464800834656, 0.7145451586785356, 1707438697168246172
0.10088330507278442, 0.8839244842529297, 0.7916744437688809, 1707438697177547288
0.028274238109588623, -0.044527530670166016, 0.7316433826571899, 1707438697187529779
0.0687447190284729, -0.17809808254241943, 0.5876575223447074, 1707438697200167327
0.07041376829147339, 0.021272599697113037, 1.0192137305761382, 1707438697207539275
0.5515708923339844, 0.8677684664726257, 0.7466957151165942, 1707438697217554066
-0.13899356126785278, 0.9087724089622498, 0.7300639562784235, 1707438697227550584
-0.35535138845443726, -0.3753920793533325, 0.7140411008666652, 1707438697237584668
0.011522293090820312, -0.2662785053253174, 0.6892313630724233, 1707438697248241724
0.19524675607681274, 0.38431769609451294, 0.8044399028484921, 1707438697257528113
-0.12024223804473877, 0.32775670289993286, 0.7342444808808409, 1707438697267826992
-0.14850687980651855, 0.2331750988960266, 0.5799710626525029, 1707438697280962088
-0.1162833571434021, -0.08080530166625977, 1.168514257607632, 1707438697287509957
0.07186007499694824, 0.3537829518318176, 0.7609510854436624, 1707438697297652303
0.2541060447692871, 1.025436282157898, 0.84256061029751, 1707438697306693560
0.1970241665840149, 0.3388105034828186, 0.6661241069377277, 1707438697317784201
-0.051453471183776855, -0.011195540428161621, 0.7082971088809601, 1707438697328256427
-0.3753618597984314, 0.026657819747924805, 0.8116395308332487, 1707438697337604931
0.264126718044281, -0.014128148555755615, 0.7815946911445649, 1707438697347600111
0.5023411512374878, 0.37900954484939575, 0.6163762068830714, 1707438697360280651
-0.2041110396385193, -0.005025684833526611, 1.0557967921308882, 1707438697367603687
-0.3045598864555359, -0.18008500337600708, 0.7701333721548597, 1707438697377630985
0.04012477397918701, 0.7641770243644714, 0.7648485594212675, 1707438697387600092
0.14825886487960815, 0.40441495180130005, 0.7527451134861106, 1707438697397603386
0.25656163692474365, 0.4687272906303406, 0.7488718038635893, 1707438697407673822
-0.03135305643081665, 0.27154141664505005, 0.7542630922286984, 1707438697417663443
0.0042476654052734375, -0.0266801118850708, 0.7470735256783347, 1707438697427870273
-0.08917903900146484, 0.3738020658493042, 0.6180134361153533, 1707438697440215044
-0.2747081518173218, 0.18459981679916382, 0.9997177397492365, 1707438697447660085
-0.050189852714538574, -0.11182093620300293, 0.820876691580858, 1707438697456697084
0.06971472501754761, 0.23803675174713135, 0.6734631198720582, 1707438697467727669
0.19623875617980957, 0.09916019439697266, 0.7526898877229076, 1707438697477650688
0.5060672760009766, 0.3719210624694824, 0.6979118745304878, 1707438697488270345
0.1618022918701172, 0.28224503993988037, 0.7685688309790794, 1707438697497646376
-0.2668003439903259, -0.16959673166275024, 0.7095495258876985, 1707438697507779744
-0.06833797693252563, 0.4850616455078125, 0.5737760877698987, 1707438697520267841
-0.0822678804397583, 0.46989428997039795, 0.9587382703353309, 1707438697527662572
-0.178713858127594, 0.04851686954498291, 0.797790425292111, 1707438697536693947
-0.35281211137771606, 0.24719667434692383, 0.6619217747120802, 1707438697547650145
-0.059472858905792236, -0.08403283357620239, 0.8309118660451902, 1707438697556674278
0.2830383777618408, 0.10025972127914429, 0.6705273113355019, 1707438697568278477
-0.0024909377098083496, 0.3262753486633301, 0.8320224710847947, 1707438697577670710
-0.2702729105949402, 0.38947659730911255, 0.7631243144135496, 1707438697587888385
0.06908506155014038, 1.179097294807434, 0.58605862513465, 1707438697600937578
0.28097689151763916, 0.33022141456604004, 1.1099707577852447, 1707438697607741158
0.2725549340248108, -0.3953511714935303, 0.7529430933328926, 1707438697617883566
-0.062122464179992676, 0.28867673873901367, 0.7656051002889358, 1707438697627850384
-0.3477320075035095, 0.3394024968147278, 0.7672393596376973, 1707438697637825591
0.06690168380737305, -0.24094122648239136, 0.7057884113070203, 1707438697648632070
0.5004131197929382, 0.023515820503234863, 0.8046403454250708, 1707438697658045162
0.538723349571228, 0.913011908531189, 0.7598974066274967, 1707438697668044536
-0.282886803150177, 0.5300611257553101, 0.6047896490638693, 1707438697680343022
-0.42994046211242676, -0.4545484781265259, 0.9883889060963232, 1707438697687818839
0.006998002529144287, 0.16036754846572876, 0.7332859713851206, 1707438697698081008
0.07766079902648926, 0.5271347761154175, 0.767307912869976, 1707438697707839215
0.05780220031738281, 0.7860351204872131, 0.7389533243813035, 1707438697717928065
-0.2604157328605652, 0.23093241453170776, 0.6855375631944547, 1707438697728669118
-0.057200074195861816, -0.4741053581237793, 0.7922174053571779, 1707438697737862055
0.1657191514968872, 0.5596557855606079, 0.7379836017424982, 1707438697747891555
-0.009087145328521729, 0.9667168855667114, 0.6316784024877602, 1707438697759676948
-0.3733257055282593, -0.0734018087387085, 0.9219330494861241, 1707438697767894624
0.03018277883529663, -0.49522829055786133, 0.7770555751805921, 1707438697777972893
0.189772367477417, -0.4049082398414612, 0.7981442731223193, 1707438697787987116
0.23407810926437378, 0.3916971683502197, 0.8109233245409305, 1707438697797926107
0.07352650165557861, 0.897159218788147, 0.7327703820561008, 1707438697808526561
-0.36777418851852417, -0.15091925859451294, 0.7895501687668234, 1707438697817960895
0.23474299907684326, -0.17691493034362793, 0.7355982281795225, 1707438697828044384
0.34923332929611206, 0.6118020415306091, 0.5993430856512099, 1707438697840318445
0.11258018016815186, 0.8598611354827881, 0.9305674249036093, 1707438697848064156
-0.1975802183151245, 0.6298658847808838, 0.7321881984017427, 1707438697858028988
-0.38312506675720215, -0.4470824599266052, 0.7400965628692195, 1707438697868064265
0.13594281673431396, -0.5167863368988037, 0.7683931323575525, 1707438697878053344
0.46537989377975464, 0.9618979096412659, 0.7490733609305196, 1707438697888284622
-0.24613964557647705, 0.5607764720916748, 0.7634807262427551, 1707438697898056371
-0.3894873857498169, -0.19503355026245117, 0.7422734504871428, 1707438697908085397
0.05692356824874878, -0.27853548526763916, 0.5830057029324158, 1707438697920968102
0.5157562494277954, 0.11090725660324097, 1.250007251639489, 1707438697927077207
0.5728420615196228, 1.2484381198883057, 0.6780817021760619, 1707438697938159810
-0.255781352519989, 0.23617756366729736, 0.7320385197667106, 1707438697948167146
-0.07277828454971313, -0.5982996821403503, 0.7549264519819425, 1707438697958162054
-0.002772688865661621, -0.012661576271057129, 0.7568026256471934, 1707438697968352400
-0.1123996376991272, 0.7375413775444031, 0.7838072437239935, 1707438697978151509
0.1029360294342041, 0.6818917989730835, 0.7372356852801177, 1707438697988459192
-0.10300981998443604, -0.007107138633728027, 0.6376578362180746, 1707438698000262004
-0.3155707120895386, -0.5526474118232727, 0.9538526062266789, 1707438698008192248
0.29249465465545654, 0.6523169279098511, 0.7551132472151026, 1707438698018236979
-0.12572097778320312, 1.0676568746566772, 0.7353090942259458, 1707438698028262350
-0.3507447838783264, 0.2945477366447449, 0.737295244615884, 1707438698038236113
0.1462976336479187, -0.20268535614013672, 0.7931738803646253, 1707438698047682112
0.19695568084716797, -0.3777579069137573, 0.7129351372673884, 1707438698058468386
0.17581939697265625, 0.2982146143913269, 0.7778556546600389, 1707438698068341717
-0.29782456159591675, 0.6735199689865112, 0.5928925487167375, 1707438698080895042
-0.2316085696220398, -0.11563098430633545, 1.0007235196392767, 1707438698088307477
0.01617497205734253, -0.5003178715705872, 0.7312570764902713, 1707438698098567471
0.07405602931976318, -0.014924407005310059, 0.757530546232356, 1707438698108373724
-0.14495378732681274, 0.9022696018218994, 0.726800754080331, 1707438698118328277
0.06426972150802612, 1.096933126449585, 0.6658892531419047, 1707438698128920587
0.056257784366607666, -0.15213268995285034, 0.759372408690867, 1707438698138407126
0.1682026982307434, -0.2961375117301941, 0.7459535373972345, 1707438698148493429
0.06900477409362793, 0.551385760307312, 0.6402965066478863, 1707438698160361768
-0.2108432650566101, -0.008039236068725586, 0.9048939924469226, 1707438698168502556
-0.2918868660926819, -0.24974530935287476, 0.7122295025137626, 1707438698178586244
0.39051544666290283, 0.16050803661346436, 0.7267359826818206, 1707438698188420048
0.6856614947319031, 0.6904569864273071, 0.710676575676805, 1707438698198446389
0.06021082401275635, 0.4234507083892822, 0.6967294630335528, 1707438698208579363
-0.48955559730529785, -0.3751826882362366, 0.7193900272233842, 1707438698218455390
-0.2736542820930481, -0.15874028205871582, 0.7332662616925599, 1707438698228438396
-0.03570866584777832, 0.5443694591522217, 0.7598564007399415, 1707438698248479067
-0.03949308395385742, 0.5628811120986938, 0.7699935354360723, 1707438698258528027
0.44550788402557373, 0.06362098455429077, 0.7726831794741628, 1707438698268546132
0.3587146997451782, 0.46532177925109863, 0.767284735587574, 1707438698278523488
0.11128157377243042, 0.5506397485733032, 0.7408370139028451, 1707438698288566549
-0.007848858833312988, 0.1871967911720276, 0.7324991199400299, 1707438698298540699
-0.21435171365737915, -0.01197671890258789, 0.7057317304182817, 1707438698308852520
-0.26530706882476807, -0.12017315626144409, 0.6230869080374178, 1707438698320662466
0.13492268323898315, -0.11885678768157959, 0.9439250351775568, 1707438698328538180
0.14860022068023682, 0.3385937809944153, 0.7328986177220984, 1707438698338608713
-0.10995882749557495, 0.2127862572669983, 0.7327422279086149, 1707438698348636251
-0.14855098724365234, 0.2998024821281433, 0.7195665624471619, 1707438698358885254
-0.1357661485671997, 0.20621496438980103, 0.7489322500680484, 1707438698368767726
0.24207252264022827, 0.15996336936950684, 0.752672357023905, 1707438698378612341
0.11503314971923828, 0.32673341035842896, 0.7300510933782809, 1707438698388615036
-0.22315704822540283, 0.20315152406692505, 0.6216063021349854, 1707438698400255298
0.17024993896484375, 0.17552810907363892, 0.8666246621915222, 1707438698408654616
0.017347216606140137, 0.551088273525238, 0.7093835968495393, 1707438698418938235
-0.4649878740310669, 0.15552949905395508, 0.7535601051179203, 1707438698428722985
-0.20988696813583374, 0.043742239475250244, 0.749152793529316, 1707438698438823977
-0.016325056552886963, 0.04743242263793945, 0.7871486709872703, 1707438698448723270
0.510128915309906, 0.034734249114990234, 0.7895060921185062, 1707438698458755594
0.36026430130004883, 0.3044600486755371, 0.7680204747378142, 1707438698468878829
-0.19519412517547607, 0.4178411364555359, 0.6633122784531199, 1707438698480270376
-0.12255293130874634, 0.3389017581939697, 1.006872564692488, 1707438698487712686
0.0366550087928772, 0.28436022996902466, 0.6657248527368618, 1707438698498923362
0.43420493602752686, -0.11620837450027466, 0.6058722621846452, 1707438698511286824
0.3667207360267639, 0.07892352342605591, 1.0017464694662868, 1707438698518780488
-0.2845386862754822, 0.3062369227409363, 0.7481821491256502, 1707438698528809597
-0.35285812616348267, 0.03644460439682007, 0.7448399314616097, 1707438698539002865
0.28145062923431396, 0.20668482780456543, 0.7733496037547901, 1707438698548874227
0.22952741384506226, 0.13934940099716187, 0.647335392145223, 1707438698560736695
-0.15458935499191284, 0.46571868658065796, 0.945693725953929, 1707438698568855758
-0.3329302668571472, 0.5402988195419312, 0.7569488204274166, 1707438698578851288
-0.16165393590927124, -0.2074195146560669, 0.6044228889883382, 1707438698591349092
-0.1208568811416626, 0.07609623670578003, 0.9970336828378709, 1707438698598853135
-0.1344178318977356, 0.7323616743087769, 0.7303918311369436, 1707438698608910735
0.15963822603225708, 0.4107167720794678, 0.7342767074162061, 1707438698618870067
0.06735390424728394, 0.01218569278717041, 0.7318886027123609, 1707438698628900853
-0.1668466329574585, -0.45818430185317993, 0.6518838126046059, 1707438698640327899
-0.13263583183288574, 0.6656967997550964, 0.8622128837967985, 1707438698648987661
-0.10611838102340698, -0.1711164116859436, 0.7233853968849402, 1707438698659217221
0.03846907615661621, -0.8862313032150269, 0.5990371398989871, 1707438698671864588
0.13037145137786865, -0.1401638388633728, 1.097241529533678, 1707438698678986096
0.31285756826400757, 0.5954990386962891, 0.7842628193644142, 1707438698689014600
-0.33558279275894165, 0.6417040228843689, 0.7704340257213141, 1707438698698962409
-0.7052594423294067, -0.19997304677963257, 0.7241653514216315, 1707438698709137258
0.2212727665901184, -0.43179094791412354, 0.6519826248204135, 1707438698720377524
0.8631263375282288, 0.8640503883361816, 0.8555243349703721, 1707438698729019661
0.2321864366531372, 0.9057090878486633, 0.7872288956058977, 1707438698738348762
-0.18896812200546265, 0.16842424869537354, 0.5572363500995984, 1707438698751617702
-0.14179182052612305, -0.4394329786300659, 0.9946558840550673, 1707438698759088451
-0.34217727184295654, -0.44315487146377563, 0.7493648294744896, 1707438698769067456
-0.22038650512695312, 1.0161974430084229, 0.7520515741399818, 1707438698779049080
-0.11887133121490479, 0.8260565996170044, 0.7360585761354571, 1707438698789107258
0.13927572965621948, -0.41666924953460693, 0.7139508256859303, 1707438698799663042
0.5280725359916687, -0.30628442764282227, 0.8315462124912467, 1707438698809122938
0.2750481963157654, 0.32821911573410034, 0.8893216082433048, 1707438698818128354
-0.24510210752487183, 1.061426043510437, 0.6173637830268028, 1707438698831031837
-0.5443512201309204, 0.338916540145874, 0.9586473387060507, 1707438698839129369
-0.3693208694458008, -0.9970051646232605, 0.7744733442769791, 1707438698849176949
0.42057543992996216, -0.2125198245048523, 0.7967523733752123, 1707438698859155498
0.6331842541694641, 1.151218295097351, 0.7735967336221284, 1707438698869188152
0.04713761806488037, 0.804725170135498, 0.6316822256484472, 1707438698881073869
-0.2734779119491577, 0.03746950626373291, 0.9090520737887363, 1707438698889215210
-0.20738834142684937, -0.8131423592567444, 0.7340447184008331, 1707438698899340080
0.22572487592697144, 0.45429694652557373, 0.6212975149110888, 1707438698911632328
-0.03134649991989136, 1.541372537612915, 0.9995090917509936, 1707438698919235499
-0.15726161003112793, 0.048814594745635986, 0.7506242261136953, 1707438698929267280
0.10023897886276245, -0.6458210349082947, 0.7614215117742873, 1707438698939296709
-0.2577463388442993, -0.2853389382362366, 0.7655226962803714, 1707438698949280191
-0.15644794702529907, 0.5311541557312012, 0.6454611339198163, 1707438698960975235
0.24513787031173706, 1.1347153186798096, 0.8687198126719761, 1707438698969326167
0.04434704780578613, -0.4205567240715027, 0.7160782777513878, 1707438698979336456
0.40192919969558716, -0.5092248320579529, 0.5785784596698482, 1707438698992259602
0.19609838724136353, 0.6075763702392578, 1.0659209049719212, 1707438698999313645
-0.2351897954940796, 0.6993497610092163, 0.7348941787941209, 1707438699009368244
-0.31852585077285767, 0.2690016031265259, 0.7297426037588688, 1707438699019408393
-0.24589753150939941, -0.4222515821456909, 0.7341048204850811, 1707438699029389244
0.06948816776275635, -0.3029518127441406, 0.6887142869388538, 1707438699040346613
0.5068091154098511, 0.7340512275695801, 0.8337024238227924, 1707438699049422534
-0.2564125657081604, 0.5948302745819092, 0.7389115683613053, 1707438699059452043
-0.32975077629089355, -0.09143012762069702, 0.5455314376687556, 1707438699073026146
0.10115975141525269, 0.13108760118484497, 1.1624645157849827, 1707438699079447558
0.009033739566802979, 0.21279525756835938, 0.7605353874867381, 1707438699089453982
0.4153830409049988, 0.855958104133606, 0.7613803834006856, 1707438699099454991
0.1488303542137146, 0.35204315185546875, 0.7492024635435476, 1707438699109474969
-0.4509621262550354, -0.5775521397590637, 0.70204720431428, 1707438699120308129
-0.3811202049255371, 0.030319392681121826, 0.8206107314727815, 1707438699129634861
0.161188006401062, 0.4465171694755554, 0.8335796400045056, 1707438699138771248
0.37515372037887573, 0.11742144823074341, 0.559583229171774, 1707438699152303466
-0.6203835010528564, -0.3572661876678467, 0.9875787692919269, 1707438699159881122
-0.08800923824310303, 1.040417194366455, 0.8461860223967586, 1707438699168737003
0.3830956220626831, 1.007820725440979, 0.73569717639151, 1707438699178792129
0.47346919775009155, -0.12091946601867676, 0.6715952695900631, 1707438699189593860
0.1311892867088318, -0.2463829517364502, 0.665561711760211, 1707438699200782256
-0.2055707573890686, 0.21288275718688965, 0.8640515160376129, 1707438699209629702
-0.07311171293258667, 0.28699952363967896, 0.7675555425178192, 1707438699219646071
-0.42436879873275757, 0.20398521423339844, 0.5857723147137078, 1707438699232535811
-0.4421955347061157, -0.033364832401275635, 1.0383100741106182, 1707438699239597210
0.1787998080253601, 0.1455763578414917, 0.7243611486324999, 1707438699249656239
0.7898972034454346, 0.5335665941238403, 0.7921152029145935, 1707438699258752678
0.3344711661338806, -0.0537685751914978, 0.7123603133602643, 1707438699268736771
0.03445857763290405, 0.02120363712310791, 0.6140444405630294, 1707438699280341828
-0.25085341930389404, 0.08508527278900146, 0.8416164717847602, 1707438699288764725
-0.45608359575271606, 0.25261354446411133, 0.6340976356790959, 1707438699299914837
-0.3500286936759949, 0.6693228483200073, 0.5512371953605312, 1707438699312651021
-0.1640777587890625, 0.22537869215011597, 1.1567567188238168, 1707438699318761972
0.38027453422546387, 0.017915725708007812, 0.6745686827256462, 1707438699329811050
0.5039035677909851, 0.2390122413635254, 0.7763852130799361, 1707438699339868907
-0.050497233867645264, 0.08815592527389526, 0.796748111039534, 1707438699349814579
-0.13067924976348877, 0.23389029502868652, 0.7986933365348076, 1707438699359671972
-0.3300706744194031, 0.3203001618385315, 0.7580224757064072, 1707438699369846359
-0.764819860458374, 0.024335622787475586, 0.7658353433558152, 1707438699379843733
-0.06275397539138794, 0.23036408424377441, 0.5853931802783578, 1707438699392747146
0.4009435176849365, 0.21514993906021118, 1.0337637540492588, 1707438699399879582
0.8316299319267273, 0.3724116086959839, 0.7337970726025549, 1707438699409898006
0.08932405710220337, 0.46752357482910156, 0.7430478161459668, 1707438699419905731
-0.06894749402999878, -0.35686057806015015, 0.7601464869291782, 1707438699429910357
0.30196136236190796, -0.1610485315322876, 0.7856420037728278, 1707438699439691293
-0.15294843912124634, 0.3062722682952881, 0.7375430938434457, 1707438699449921698
-0.4227498769760132, 0.262928307056427, 0.7448810395364565, 1707438699459914651
-0.3298715353012085, 0.377871572971344, 0.5918383640928045, 1707438699472358750
-0.08481395244598389, -0.04506450891494751, 0.9737475291805914, 1707438699479913930
0.4169689416885376, 0.19728612899780273, 0.7391028834472105, 1707438699489928096
0.1998080015182495, 1.0420845746994019, 0.7220782939058011, 1707438699499992906
-0.10057151317596436, 0.3910415768623352, 0.7198856426105016, 1707438699509960116
-0.09198206663131714, 0.011589884757995605, 0.6632210151894675, 1707438699520788493
-0.3075721263885498, -0.05942302942276001, 0.7773319326985594, 1707438699529979385
-0.1842653751373291, 0.31068670749664307, 0.7207275881884975, 1707438699539982943
0.02794170379638672, 0.4829064607620239, 0.5763431935759651, 1707438699552663273
-0.12479227781295776, -0.04118245840072632, 1.0236497157706892, 1707438699560000225
0.1535658836364746, -0.5484514832496643, 0.7790189553588753, 1707438699570030875
0.6077916622161865, 0.006305992603302002, 0.782134453280686, 1707438699580075327
-0.2899184823036194, 0.5440487861633301, 0.7738515400544308, 1707438699590052419
-0.47137874364852905, 0.613103985786438, 0.7354500169337423, 1707438699600340444
-0.08677470684051514, -0.06785362958908081, 0.7745821401132014, 1707438699610075896
0.267921507358551, -0.16508466005325317, 0.7511722972279682, 1707438699620278996
0.3103422522544861, 0.7478039860725403, 0.6314586165246082, 1707438699632336877
-0.22985190153121948, 0.7654882669448853, 0.9661247749313742, 1707438699640101181
-0.416265606880188, -0.17479723691940308, 0.7436923095148946, 1707438699650197787
-0.20350974798202515, -0.2260829210281372, 0.7516069319280759, 1707438699660245331
0.36888962984085083, 0.6626042127609253, 0.7398660782668097, 1707438699670545774
-0.1479283571243286, 0.2047410011291504, 0.7742169203657928, 1707438699680374294
-0.49463582038879395, -0.8576441407203674, 0.7833185984825369, 1707438699690141576
-0.12107139825820923, 0.5575966835021973, 0.7806877761881836, 1707438699700169603
0.3508256673812866, 1.1676751375198364, 0.6187417699727328, 1707438699712833731
0.31814414262771606, 0.20031356811523438, 1.060275061907638, 1707438699720172628
-0.36684703826904297, -0.4714199900627136, 0.7763853581427395, 1707438699730207247
-0.2504328489303589, -0.5066241025924683, 0.782260052889587, 1707438699740246767
0.06497210264205933, 0.2551466226577759, 0.8002867022435434, 1707438699750235566
-0.4895009994506836, 1.2681978940963745, 0.7761322978903687, 1707438699760376864
-0.44014108180999756, 0.3201700448989868, 0.76776318147721, 1707438699770255061
0.1897289752960205, -0.2613450884819031, 0.7449821923275439, 1707438699780272006
0.7675138711929321, -0.14491558074951172, 0.6518625274358082, 1707438699791686356
0.5346471071243286, 0.5390970706939697, 0.8773774124678211, 1707438699800292298
-0.09548485279083252, 1.094406247138977, 0.7480685660192253, 1707438699810290700
-0.614230215549469, -0.22417324781417847, 0.7193611708510173, 1707438699820351191
-0.4721531271934509, -0.9370796084403992, 0.7274973538721022, 1707438699830324995
-0.16478264331817627, 0.2103562355041504, 0.6763150141482217, 1707438699841132600
0.5285245180130005, 0.7126361131668091, 0.7906469096763361, 1707438699850333196
0.7838128209114075, 0.6908187866210938, 0.724704339544239, 1707438699860356820
-0.1901288628578186, -0.34153491258621216, 0.6125368236189133, 1707438699872326394
-0.4475208520889282, -0.42400169372558594, 0.9416074108093222, 1707438699880374426
0.2815353274345398, 0.7850229740142822, 0.7477821147382169, 1707438699890537056
0.08903592824935913, 0.5486042499542236, 0.7417231031952843, 1707438699900457963
-0.34218841791152954, -0.2160671353340149, 0.7358495756763096, 1707438699910394070
-0.1989821195602417, -0.04573237895965576, 0.7316280911504706, 1707438699920459527
0.16175907850265503, 0.2798830270767212, 0.7475601662819105, 1707438699930432145
0.23413681983947754, 0.8224501013755798, 0.7446008599050368, 1707438699940467293
-0.1400853991508484, 0.4976766109466553, 0.6156847588457615, 1707438699952375757
-0.03429067134857178, -0.4315257668495178, 0.9212016775790675, 1707438699960476349
0.34536099433898926, 0.33068156242370605, 0.7629949370045391, 1707438699970491845
-0.3386268615722656, 0.46137917041778564, 0.753181083757668, 1707438699980557024
-0.0446895956993103, 0.29164814949035645, 0.7546867937556578, 1707438699990497767
-0.05572664737701416, 0.13157260417938232, 0.7176314564418567, 1707438700000818673
-0.593416690826416, -0.5066624283790588, 0.7754549989378534, 1707438700010510437
0.06085175275802612, 0.1906871795654297, 0.760430957156131, 1707438700020556102
0.27330583333969116, 0.580394446849823, 0.6133815757782084, 1707438700032799991
0.29340702295303345, 0.16302889585494995, 0.9686945337543549, 1707438700040585148
-0.2183021903038025, 0.32479971647262573, 0.7460337574630229, 1707438700050806334
-0.3077741861343384, 0.20046156644821167, 0.7820251398329581, 1707438700060652214
0.07671570777893066, 0.35728317499160767, 0.7808458659118976, 1707438700070582915
0.10546815395355225, 0.3990970849990845, 0.831353744229793, 1707438700079676417
-0.15296924114227295, -0.03448134660720825, 0.6801988641471489, 1707438700090642951
0.07140260934829712, 0.05731481313705444, 0.8242051827086796, 1707438700099694467
0.1114153265953064, 0.246726393699646, 0.6128487026201624, 1707438700111685954
-0.1317068338394165, -0.021424472332000732, 0.8102706020086855, 1707438700120638030
0.28360724449157715, 0.3605504035949707, 0.7031526283902577, 1707438700130883693
0.03112947940826416, 0.020457327365875244, 0.7493742489537687, 1707438700140732731
-0.18349319696426392, -0.04636549949645996, 0.7647497862762772, 1707438700150724894
-0.1727730631828308, 0.4154953956604004, 0.7613586288379733, 1707438700160817690
0.0155448317527771, 0.1804887056350708, 0.7550512069748873, 1707438700170974921
-0.08953839540481567, 0.7511609792709351, 0.769759519252302, 1707438700180814856
0.0667426586151123, 0.43859124183654785, 0.6466964249074755, 1707438700192350615
-0.14750170707702637, 0.4212723970413208, 0.8932106279761418, 1707438700200739421
-0.7144919633865356, -0.1352294683456421, 0.7467548936232927, 1707438700210753573
-0.43941545486450195, 0.16030353307724, 0.7491329428813344, 1707438700220818796
0.4436999559402466, 0.6922069191932678, 0.7737346524327158, 1707438700230770569
1.0470105409622192, -0.1401805281639099, 0.7754139926756294, 1707438700240840739
0.5086601972579956, -0.2926156520843506, 0.8007544609876633, 1707438700250785228
-0.4990447759628296, 0.23601502180099487, 0.7958087051669754, 1707438700260835871
-0.25748223066329956, 0.34710049629211426, 0.6839062241856838, 1707438700272437682
-0.3062172532081604, 0.22073733806610107, 0.9356196626747895, 1707438700280811611
-0.10574299097061157, 0.17285412549972534, 0.7381566584584132, 1707438700291037076
0.16672849655151367, 0.25152480602264404, 0.7420684371885011, 1707438700300878785
0.4223187565803528, 0.4875701069831848, 0.7097063466280131, 1707438700310964770
-0.16901981830596924, -0.09310436248779297, 0.718227524788615, 1707438700320911253
-0.3213188052177429, -0.19364893436431885, 0.7239469893397273, 1707438700331043273
-0.24577069282531738, 0.3758431077003479, 0.7532349959072026, 1707438700340889344
-0.3436673879623413, 0.2199152112007141, 0.6110189150713373, 1707438700353046592
-0.04769158363342285, 0.2467365264892578, 0.9557954287695807, 1707438700360911944
0.33516985177993774, 0.1261879801750183, 0.7507570825372423, 1707438700370994357
0.7630735635757446, 0.36208635568618774, 0.7580481779507252, 1707438700381063877
-0.07289284467697144, 0.9988362193107605, 0.7602742204122889, 1707438700390968268
-0.39525657892227173, 0.07042509317398071, 0.731927485841224, 1707438700401006295
-0.11249327659606934, -0.35510140657424927, 0.7366051550880628, 1707438700411004392
0.12362802028656006, 0.10585278272628784, 0.7354385778743542, 1707438700421053323
-0.10957884788513184, 0.26597803831100464, 0.6572738980540553, 1707438700432377414
-0.27095746994018555, 0.3775123953819275, 0.8725637052645647, 1707438700441006103
-0.3628089427947998, -0.08606624603271484, 0.7543326152045323, 1707438700451057438
-0.08771193027496338, -0.2485864758491516, 0.7696089108020501, 1707438700461078296
0.289537250995636, 0.8311493992805481, 0.7505693162128217, 1707438700471347935
0.12102276086807251, 0.6617254614830017, 0.7816578890783713, 1707438700481118333
-0.008837640285491943, 0.06331610679626465, 0.770147928793582, 1707438700491131094
-0.011051833629608154, -0.03695148229598999, 0.7783255358495517, 1707438700501081120
-0.1883959174156189, 0.03249388933181763, 0.6859548685913026, 1707438700512391225
0.10430920124053955, 0.7860416769981384, 0.8822509970794006, 1707438700521100728
-0.2766290307044983, 0.36203134059906006, 0.7546341747047908, 1707438700531148582
-0.29324662685394287, -0.5676975846290588, 0.6188022619499091, 1707438700543594704
0.25169700384140015, 0.2491077184677124, 1.0050636098642232, 1707438700551358174
0.36134809255599976, 0.5640469193458557, 0.7930100638124259, 1707438700561183469
0.12305527925491333, 0.7671744227409363, 0.7749113011362881, 1707438700571156414
-0.4730156660079956, 0.259029746055603, 0.8516314682138729, 1707438700580180441
-0.13577455282211304, -0.5933689475059509, 0.7011476517829872, 1707438700591424643
0.4419032335281372, -0.014699339866638184, 0.8117146301762159, 1707438700601210192
0.16167616844177246, 0.7212271690368652, 0.8533081120833693, 1707438700610239708
-0.4117525815963745, 0.2102479338645935, 0.6097981629781646, 1707438700622689549
-0.2377977967262268, -0.17323410511016846, 0.8810925965132664, 1707438700631252464
-0.4105105400085449, -0.3369874954223633, 0.7522187555488667, 1707438700641306818
0.12288469076156616, 0.6271458864212036, 0.7503235903966242, 1707438700651350522
0.21078848838806152, 1.282265543937683, 0.7385957215135149, 1707438700661414462
-0.01690620183944702, -0.12149667739868164, 0.6441485811988448, 1707438700673185652
-0.061898112297058105, 0.1334286332130432, 0.9338036942352117, 1707438700681447410
-0.13225412368774414, 0.4684975743293762, 0.7624763815615022, 1707438700691502487
-0.325439989566803, 0.818549394607544, 0.7638070876708002, 1707438700701423355
-0.26256614923477173, 0.010983407497406006, 0.7408476003239852, 1707438700711407017
0.28904879093170166, -0.5783048868179321, 0.7451332790266446, 1707438700721396351
0.3071778416633606, 0.37658464908599854, 0.7644177961168286, 1707438700731365073
-0.520503044128418, 0.40163320302963257, 0.7501879850550927, 1707438700741502113
-0.12407386302947998, 0.7176685333251953, 0.6881162368482437, 1707438700752499287
0.23331797122955322, -0.06777364015579224, 0.8402207660333914, 1707438700761450208
0.4296691417694092, -0.4138945937156677, 0.7586667646224319, 1707438700771446666
0.2651265263557434, 0.4575347304344177, 0.6204588882270641, 1707438700783831902
-0.34549766778945923, 0.663882851600647, 0.9864643035573755, 1707438700791468609
-0.41564637422561646, -0.10282349586486816, 0.7370886606449684, 1707438700801516935
-0.4012693166732788, -0.1842496395111084, 0.7410119585030156, 1707438700811478822
0.4927058815956116, 0.28917229175567627, 0.7402942678057656, 1707438700821488025
0.9671290516853333, 0.8730587363243103, 0.6853173304318678, 1707438700832424381
0.08959072828292847, 0.4791104793548584, 0.8146204379080324, 1707438700841550820
-0.5693866610527039, -0.5374360084533691, 0.8084167852865166, 1707438700850739919
-0.23991453647613525, 0.08829200267791748, 0.5429672632879895, 1707438700864577122
-0.18496650457382202, 0.5663294196128845, 1.00593557419833, 1707438700871977581
-0.06252115964889526, 0.3781852722167969, 0.7625015339766442, 1707438700881594652
-0.2897738218307495, 0.1512312889099121, 0.7231129950043075, 1707438700891595270
-0.14779287576675415, -0.3514251112937927, 0.7249343833748136, 1707438700901652031
0.13580769300460815, 0.3876532316207886, 0.6996890426369761, 1707438700912391388
0.04934060573577881, 0.8317309021949768, 0.8262049633647195, 1707438700921603128
-0.24258917570114136, 0.01593679189682007, 0.850670577679908, 1707438700930688102
0.02745586633682251, 0.020150184631347656, 0.5631357551268296, 1707438700944670433
0.25504547357559204, 0.062816321849823, 1.3113987485284404, 1707438700950686931
0.2577670216560364, 0.19705653190612793, 0.7112192206494907, 1707438700961668377
0.0251004695892334, 0.691566526889801, 0.8401842121327022, 1707438700970675871
-0.4195592999458313, 0.053409695625305176, 0.6629565071538206, 1707438700981824542
-0.18494176864624023, 0.13541048765182495, 0.6749683034959879, 1707438700992800329
-0.03965795040130615, 0.47596293687820435, 0.9343244044075555, 1707438701000693906
0.2882375121116638, 0.06104576587677002, 0.6603909896130149, 1707438701011909301
0.18197715282440186, 0.3990366458892822, 0.5939461963664066, 1707438701024631241
-0.5691835284233093, 0.13326364755630493, 0.9707352652468826, 1707438701032570986
-0.13204282522201538, -0.13854080438613892, 0.7957288712299546, 1707438701042432900
0.6722465753555298, 0.36464035511016846, 0.7692804132844878, 1707438701052447013
0.266997754573822, -0.1539885401725769, 0.7365919674058274, 1707438701062644411
0.04731273651123047, 0.28766316175460815, 0.7636317319042026, 1707438701072394669
-0.13055628538131714, 0.9415200352668762, 0.7341011985575603, 1707438701082390181
-0.2760118842124939, 0.4316680431365967, 0.7341509089262546, 1707438701092480858
-0.1971558928489685, -0.09882575273513794, 0.7578123058607554, 1707438701112575248
-0.12216830253601074, -0.44181907176971436, 0.889571901373745, 1707438701121721982
0.14446109533309937, 0.3163447976112366, 0.7643836152602559, 1707438701132490518
-0.02955859899520874, 0.1745455265045166, 0.8077799277445936, 1707438701142546958
0.10877269506454468, 0.24361926317214966, 0.7850181934141788, 1707438701152730885
-0.23884433507919312, 0.4125204086303711, 0.7994780344324373, 1707438701162544726
-0.4659578800201416, -0.05666738748550415, 0.7778024130453771, 1707438701172605444
0.2258872389793396, 0.33887988328933716, 0.6118867616983504, 1707438701185045160
-0.08190852403640747, -0.052978456020355225, 0.9879354251086566, 1707438701192581740
-0.1890736222267151, 0.21933895349502563, 0.764965417570032, 1707438701202502250
-0.10479545593261719, -0.31444430351257324, 0.7645658426804192, 1707438701212533080
0.22469520568847656, 0.07009440660476685, 0.7780925658519808, 1707438701222506187
-0.04098844528198242, 0.7879734635353088, 0.7498346885092158, 1707438701232719770
-0.33762890100479126, 0.060891807079315186, 0.7604489041454973, 1707438701242515572
-0.14090043306350708, 0.019338011741638184, 0.8145622373621317, 1707438701251715008
-0.15617722272872925, -0.08323556184768677, 0.5779529932014642, 1707438701264633033
0.11655420064926147, 0.7215893864631653, 0.9281532711347403, 1707438701272572907
0.48485350608825684, 1.4724520444869995, 0.7234537959847915, 1707438701282539963
0.32073068618774414, -0.06531494855880737, 0.7022481394369283, 1707438701292534017
0.2805241346359253, -0.5348478555679321, 0.7201104894728821, 1707438701302563688
-0.30408620834350586, 0.2331174612045288, 0.73175518483722, 1707438701312657162
-0.4569542407989502, 0.46747106313705444, 0.7500174290394624, 1707438701322484766
-0.3810410499572754, 0.19505149126052856, 0.7285606780889692, 1707438701332593173
-0.2988281846046448, -0.27460289001464844, 0.5893576580335591, 1707438701344962038
0.27351462841033936, -0.5313035249710083, 0.9624994543803813, 1707438701352655852
0.4692457318305969, 1.0934207439422607, 0.7494047264419077, 1707438701362809889
-0.29331642389297485, 0.8879485726356506, 0.7758428498165575, 1707438701372614739
-0.4889812469482422, -0.08254414796829224, 0.7658938583779479, 1707438701382551304
-0.12440502643585205, -0.1968454122543335, 0.8355339382903001, 1707438701391673738
-0.11060816049575806, 0.135273277759552, 0.7078671351504576, 1707438701402582417
0.10210877656936646, 1.3438763618469238, 0.8638084762698567, 1707438701411702796
-0.04324895143508911, 0.46726441383361816, 0.5804754424386139, 1707438701425122173
0.1084599494934082, -0.6998953223228455, 1.060566748974131, 1707438701432549908
0.16525804996490479, 0.09697681665420532, 0.8060351573014801, 1707438701442414452
-0.11739301681518555, 0.6549600958824158, 0.8778727967052363, 1707438701451331576
-0.2812647819519043, 0.5713769793510437, 0.7767827765028162, 1707438701461290910
-0.11393129825592041, 0.02574896812438965, 0.7460933406095626, 1707438701471581436
-0.20373034477233887, -0.9325110912322998, 0.7283994034643012, 1707438701482315610
0.14600473642349243, 0.1377663016319275, 0.7956377379818402, 1707438701492324843
0.11386734247207642, 1.2739965915679932, 0.624625269890587, 1707438701504749017
-0.06518703699111938, 0.42184096574783325, 0.9808378521614184, 1707438701512530205
-0.06449079513549805, -0.07526832818984985, 0.7575295199144464, 1707438701522619870
0.15059101581573486, -0.34046870470046997, 0.7841153100317505, 1707438701532433346
-0.0055321455001831055, 0.6909557580947876, 0.7798048561069192, 1707438701542341736
-0.20037579536437988, 1.305243968963623, 0.7135210918542043, 1707438701552885773
-0.3770507574081421, -0.3567126989364624, 0.7864382188000404, 1707438701562384412
0.002145707607269287, -0.5763111710548401, 0.75795927814172, 1707438701572426348
0.16353493928909302, 0.31266218423843384, 0.6780808766522184, 1707438701583687902
0.01524585485458374, 0.6838820576667786, 0.8728460409098796, 1707438701592431625
0.08084255456924438, 0.9962529540061951, 0.749507677071458, 1707438701602476855
-0.2330838441848755, -0.3906193971633911, 0.7528698607279456, 1707438701612507271
-0.04614436626434326, -0.2374827265739441, 0.7771788776102007, 1707438701622465474
-0.0016887187957763672, 0.8528239130973816, 0.836810834850806, 1707438701631688285
0.10453653335571289, 0.22275620698928833, 0.7173775330307876, 1707438701642467920
0.04173010587692261, -0.15173488855361938, 0.7707479625395991, 1707438701652563310
-0.09795719385147095, -0.10899370908737183, 0.6435393332790136, 1707438701664643141
-0.17548108100891113, 0.0005873441696166992, 0.9799109948945831, 1707438701672620459
-0.25757867097854614, 0.44016194343566895, 0.8444951298491874, 1707438701681694809
0.009585261344909668, 0.15177160501480103, 0.6859874370301942, 1707438701692772373
0.40590226650238037, 0.5986118912696838, 0.7873269938061661, 1707438701702594412
0.03486216068267822, 0.13680309057235718, 0.7803726394075277, 1707438701712620383
-0.11970585584640503, 0.5220460295677185, 0.7960825424418032, 1707438701722587908
0.01139134168624878, 0.10987424850463867, 0.7833613516383946, 1707438701732614662
-0.1692110300064087, -0.47297853231430054, 0.606547760611754, 1707438701745406396
0.14263051748275757, 0.4131697416305542, 1.076630564981881, 1707438701752654033
0.16123265027999878, 0.5302208662033081, 0.8467421201144064, 1707438701761683910
-0.061153948307037354, 0.1123242974281311, 0.7514655135325938, 1707438701771671946
-0.4958614706993103, -0.06430751085281372, 0.6782519824606651, 1707438701782644118
-0.6447440981864929, -0.31687766313552856, 0.7254583691470176, 1707438701792810629
0.09154337644577026, 1.003169298171997, 0.8367272760577499, 1707438701801684999
0.6614470481872559, 0.7677879929542542, 0.736122588063765, 1707438701811707252
0.3554893136024475, -0.30519646406173706, 0.5580616898049068, 1707438701824968885
-0.40058958530426025, -0.08492231369018555, 1.1278700261063856, 1707438701831703875
-0.3511085510253906, 0.33004653453826904, 0.6942355045631914, 1707438701842730332
-0.384630024433136, 0.2714552879333496, 0.7570083438266196, 1707438701852823618
-0.3188866972923279, 0.45389336347579956, 0.7521625704799564, 1707438701862743981
0.3110918402671814, 0.07555216550827026, 0.7015683454321017, 1707438701873152591
0.8549467325210571, 0.5261343121528625, 0.7733241143849893, 1707438701882740055
0.18928462266921997, 0.5564537644386292, 0.742117260097784, 1707438701892827083
-0.40838623046875, -0.19599014520645142, 0.6126152403069968, 1707438701905069976
-0.1572149395942688, 0.20011723041534424, 0.964641938279241, 1707438701912832301
-0.3737657070159912, 0.03220003843307495, 0.7448734217735733, 1707438701922822543
-0.08916598558425903, 0.08900177478790283, 0.7490997474856621, 1707438701932904278
0.13372957706451416, 0.43403398990631104, 0.77000581714665, 1707438701942796985
0.22945326566696167, 0.05057525634765625, 0.75540088761969, 1707438701952928769
0.20291465520858765, 0.555328905582428, 0.7798398040986726, 1707438701962852405
0.030397415161132812, 0.6999872922897339, 0.7659081655379399, 1707438701972934383
-0.217041015625, 0.3082125186920166, 0.6323962737336911, 1707438701985213283
-0.15784382820129395, 0.5042601823806763, 1.0192043814320606, 1707438701992873614
-0.4075775742530823, -0.1852218508720398, 0.7846772954300164, 1707438702002906507
-0.3515918254852295, -0.30677908658981323, 0.7979410649387786, 1707438702012976561
0.40904635190963745, 0.34784287214279175, 0.8029158628140562, 1707438702022903404
0.4135318398475647, 0.3269083499908447, 0.7670187288520853, 1707438702032986835
0.09608793258666992, 0.5783759951591492, 0.7558398908075895, 1707438702042914015
-0.2587404251098633, 0.3356482982635498, 0.7270300718812353, 1707438702053013339
-0.18477094173431396, -0.008668959140777588, 0.6170271255523166, 1707438702065030407
-0.03791701793670654, 0.4624186158180237, 0.9396289420878838, 1707438702073010264
-0.322260320186615, 0.2745630145072937, 0.7456247834664788, 1707438702083174023
-0.1016315221786499, 0.031432509422302246, 0.7847345864846422, 1707438702093083888
0.024928927421569824, 0.10779416561126709, 0.7887149642817907, 1707438702103051329
0.059445083141326904, -0.23004531860351562, 0.781284999325292, 1707438702113065710
0.3148532509803772, 0.4799565076828003, 0.761720976722796, 1707438702123054995
-0.3045525550842285, 0.7524506449699402, 0.7312114286869386, 1707438702133088015
-0.3294145464897156, 0.11972171068191528, 0.6887158897913526, 1707438702143719871
0.01951134204864502, 0.24966806173324585, 0.7870800480897727, 1707438702153117761
0.5140618085861206, 0.2054235339164734, 0.7403923905338352, 1707438702163360341
0.3689575791358948, 0.4351591467857361, 0.7869078011356201, 1707438702173207528
-0.508015513420105, -0.1229933500289917, 0.760447119071156, 1707438702183299506
-0.012961804866790771, -0.3001663088798523, 0.7624757526766365, 1707438702193345792
0.29923146963119507, 0.41640645265579224, 0.7725028807211657, 1707438702203179031
0.38634365797042847, 0.549684464931488, 0.7244142410566525, 1707438702213451076
0.11388099193572998, 0.5317081212997437, 0.7185253236356653, 1707438702223707127
-0.27132028341293335, -0.4543520212173462, 0.7755991187853427, 1707438702233157790
-0.21162688732147217, -0.3572862148284912, 0.7431756190818933, 1707438702243223367
-0.16321253776550293, 1.0734038352966309, 0.7573648670487628, 1707438702253291752
-0.25864148139953613, 0.5981158018112183, 0.7701093187345719, 1707438702263208508
0.019240915775299072, -0.08382642269134521, 0.7736582936028145, 1707438702273247445
0.21370261907577515, -0.0806010365486145, 0.7844329757148946, 1707438702283248998
0.15838801860809326, 0.3023264408111572, 0.7866273984787882, 1707438702293261500
-0.2094464898109436, 1.046027421951294, 0.6710841644144896, 1707438702304965638
-0.7743649482727051, -0.03673684597015381, 0.921728362297838, 1707438702313249071
-0.3386629819869995, -0.1956043243408203, 0.7529949899044815, 1707438702323264614
0.6528739929199219, 0.7160287499427795, 0.5993188353648695, 1707438702335797752
1.050050139427185, 0.3915719985961914, 1.138386287934833, 1707438702342277486
-0.1384965181350708, 0.2579222321510315, 0.6652701235808338, 1707438702353359874
-0.669236421585083, -0.007033228874206543, 0.820171212033892, 1707438702362373462
-0.2886201739311218, -0.6124132871627808, 0.6770197412825975, 1707438702373388785
-0.4000108242034912, 0.30782508850097656, 0.6168297296442731, 1707438702385536164
-0.2236223816871643, 0.9664311408996582, 0.9375708721616957, 1707438702393363790
0.19533050060272217, 0.28015661239624023, 0.7311324368005971, 1707438702403381109
0.5641183257102966, -0.03759920597076416, 0.595321835489245, 1707438702415859335
-0.017802059650421143, -0.2252482771873474, 1.0124197469631793, 1707438702423358816
-0.09502977132797241, 0.8990638852119446, 0.7603701360535443, 1707438702433470081
-0.3895735740661621, 0.958709716796875, 0.751134990577468, 1707438702443471836
-0.3250497579574585, -0.3684157133102417, 0.7469228945692783, 1707438702453473528
0.06421095132827759, -0.2428402304649353, 0.6557012274462811, 1707438702465040189
0.19447964429855347, 0.42080050706863403, 0.8988506728173689, 1707438702473460765
0.32316726446151733, 0.9681688547134399, 0.7495285940493289, 1707438702483507097
-0.07626456022262573, 0.7610956430435181, 0.5808685856074783, 1707438702496294223
-0.3749935030937195, -0.4683266878128052, 1.0409094291954808, 1707438702503512860
0.21637564897537231, -0.31975823640823364, 0.7732821103635077, 1707438702513554726
0.3863251805305481, 0.675585925579071, 0.774052103168833, 1707438702523564874
-0.44073909521102905, 0.1876758337020874, 0.7717565032632893, 1707438702533549091
-0.2470475435256958, -0.14699971675872803, 0.6890089130242134, 1707438702544757399
0.02777630090713501, -0.18116551637649536, 0.8830240157060762, 1707438702553551535
0.26891136169433594, 0.4440234303474426, 0.7736278777693286, 1707438702563604201
0.2608112692832947, 1.296236276626587, 0.5798648108795083, 1707438702576656170
-0.06622713804244995, 0.2103121280670166, 1.0761785890332094, 1707438702583583241
-0.01735156774520874, -0.29026472568511963, 0.7552264369221824, 1707438702593638752
-0.12622451782226562, 0.3181147575378418, 0.8452420914362534, 1707438702602674521
-0.1178552508354187, 0.39564943313598633, 0.677566924477001, 1707438702613921456
0.10088211297988892, 0.663457989692688, 0.6780210416740851, 1707438702624995217
-0.2973182797431946, 0.0471576452255249, 0.8525192373821775, 1707438702633659217
-0.30338090658187866, -0.3178139328956604, 0.7359082092720466, 1707438702643798656
0.18310034275054932, 0.8434191942214966, 0.5743430437661066, 1707438702656735347
0.3268229365348816, 0.5689719915390015, 1.056113784441609, 1707438702663735162
0.18375235795974731, 0.14238041639328003, 0.7388077774828274, 1707438702673797283
-0.18793845176696777, -0.39419329166412354, 0.7397924744087461, 1707438702683893820
-0.11246496438980103, 0.24537289142608643, 0.7729896147835676, 1707438702693766440
-0.3214113712310791, 0.6120900511741638, 0.6691232118232788, 1707438702705179936
-0.12544286251068115, -0.22248971462249756, 0.8806468192376914, 1707438702713754151
0.3516402840614319, 0.10882431268692017, 0.7651038646317451, 1707438702723763369
0.15132439136505127, 0.39680129289627075, 0.6242141208603182, 1707438702736117546
0.09092003107070923, 0.7518061995506287, 1.0116534403129098, 1707438702743776012
0.03555566072463989, 0.7313064336776733, 0.7636959351944925, 1707438702753829461
-0.4055742025375366, -0.21887558698654175, 0.7578625811492554, 1707438702763827257
-0.07764959335327148, 0.36789971590042114, 0.7670594900902774, 1707438702773838455
0.40820538997650146, 0.5760735869407654, 0.6964303400527039, 1707438702784819242
0.29490411281585693, -0.14827626943588257, 0.8372663190916737, 1707438702793824364
-0.2528213858604431, 0.18487924337387085, 0.7492007402276832, 1707438702803881580
-0.4138515591621399, 0.1702691912651062, 0.5848902088691444, 1707438702816616100
0.11807167530059814, 0.1750372052192688, 1.0371404626493983, 1707438702823839882
0.4375948905944824, 0.2443598508834839, 0.7402901634992806, 1707438702833926454
-0.12296241521835327, -0.07596993446350098, 0.7360987087965022, 1707438702843938949
0.18229049444198608, 1.0744916200637817, 0.7505559194118112, 1707438702853915264
0.1907573938369751, 0.7900590300559998, 0.6899163770014185, 1707438702864752905
-0.30783432722091675, -0.12510615587234497, 0.8126991303627312, 1707438702873932651
-0.6527435779571533, 0.21721524000167847, 0.7527600959257444, 1707438702883937272
-0.3647695779800415, 0.07125240564346313, 0.5775145001376168, 1707438702897037536
0.28308653831481934, -0.07750457525253296, 1.1065114327464582, 1707438702903981511
0.39011967182159424, 0.10221332311630249, 0.7586039126326728, 1707438702914011502
0.1662071943283081, 0.2009737491607666, 0.735094281416296, 1707438702924059382
0.13903319835662842, 0.7122128009796143, 0.7291234369253532, 1707438702934013425
-0.3009834885597229, 0.43313759565353394, 0.6718169390833263, 1707438702944648137
-0.3419685959815979, -0.16128170490264893, 0.7681936368268453, 1707438702954047574
0.025645196437835693, 0.22951281070709229, 0.7243653494598205, 1707438702964173055
0.12985879182815552, 0.38225293159484863, 0.6379065596692756, 1707438702975702342
-0.17177289724349976, 0.22424638271331787, 0.8912884457188393, 1707438702984031085
-0.27755117416381836, -0.035756587982177734, 0.7405565912355974, 1707438702994083998
0.04138880968093872, -0.1934393048286438, 0.7151405879540588, 1707438703004508464
0.11961787939071655, 0.7628594636917114, 0.7664793344901826, 1707438703014137562
0.006950795650482178, 1.0931941270828247, 0.6412409626710732, 1707438703025523280
-0.17526215314865112, 0.050756633281707764, 0.8713293649837284, 1707438703034098138
0.311570405960083, -0.07554006576538086, 0.7668960064103204, 1707438703044136108
0.17419683933258057, 0.28635692596435547, 0.6218336723866867, 1707438703056618723
-0.12294554710388184, 0.6943485736846924, 1.022829775192799, 1707438703064120450
-0.19054752588272095, 0.2618066072463989, 0.7451494184318017, 1707438703074201422
-0.2964861989021301, -0.45714759826660156, 0.750859062014047, 1707438703084164932
-0.12004077434539795, -0.06720155477523804, 0.7493079261005431, 1707438703094159959
0.06023085117340088, 1.1699564456939697, 0.7023787806070823, 1707438703104761561
0.5073837637901306, 0.5453949570655823, 0.8038735490940361, 1707438703114211196
-0.008822739124298096, -0.08423101902008057, 0.786738855576706, 1707438703124227455
-0.17029333114624023, -0.3673672676086426, 0.6332519323013788, 1707438703137023644
0.46899086236953735, 0.013409316539764404, 1.1178375409467103, 1707438703144243631
0.2901308536529541, 0.9853459000587463, 0.7742065258766239, 1707438703154307061
-0.5283511281013489, 0.1487482786178589, 0.8393626576537073, 1707438703163392604
-0.33293038606643677, -0.259485125541687, 0.6897410174194036, 1707438703174348284
0.10269486904144287, 0.6710348725318909, 0.7062179222837113, 1707438703184874254
-0.10392934083938599, 0.91908860206604, 0.7751260891391533, 1707438703194340404
-0.10505354404449463, -0.022291600704193115, 0.72403901661793, 1707438703204316116
0.11248332262039185, -0.5977087020874023, 0.6206481502605441, 1707438703216064337
-0.1252794861793518, 0.35636061429977417, 0.9093440678004926, 1707438703224296487
-0.4060298204421997, 0.7425960898399353, 0.7279085184261875, 1707438703234572910
-0.17874294519424438, 0.2093769907951355, 0.853080125458172, 1707438703243380733
-0.08223491907119751, -0.2593482732772827, 0.6900222368744209, 1707438703254389182
0.13345372676849365, -0.22472286224365234, 0.7453868916899772, 1707438703264751120
0.4587825536727905, 1.1258823871612549, 0.8134274176691922, 1707438703274370221
-0.16701167821884155, 0.8705986142158508, 0.7601491100505396, 1707438703284422232
-0.4369778037071228, -0.3138023614883423, 0.6037795103061443, 1707438703296937620
-0.002250969409942627, 0.06191295385360718, 1.0266645766915512, 1707438703304416836
0.4487864375114441, 0.27947312593460083, 0.7756370496971269, 1707438703314456027
0.3105330467224121, 0.693554699420929, 0.7771112861362808, 1707438703324504111
-0.30177557468414307, 0.5891510844230652, 0.7608428187687849, 1707438703334463131
-0.20082557201385498, -0.4380723834037781, 0.6743224350846422, 1707438703345517413
0.176314115524292, -0.08263576030731201, 0.8438972587306579, 1707438703354498281
-0.012278079986572266, 0.40607815980911255, 0.7482819638021888, 1707438703364525896
0.01637488603591919, 0.7307660579681396, 0.6050705543377024, 1707438703376733434
0.18472963571548462, 0.9620698094367981, 0.9427118789124032, 1707438703384499536
0.04604572057723999, -0.2972538471221924, 0.7333921201094304, 1707438703394568793
0.15855711698532104, -0.34433966875076294, 0.7681468182432363, 1707438703404600342
-0.12542188167572021, 0.612675666809082, 0.7786176647054691, 1707438703414593734
-0.29402363300323486, 0.2553602457046509, 0.753518175734746, 1707438703424855458
-0.06752669811248779, -0.2764703631401062, 0.7967728953543979, 1707438703434580998
-0.14561188220977783, -0.16746240854263306, 0.7674805848743561, 1707438703444574592
0.17980539798736572, 0.4006911516189575, 0.6261853294997302, 1707438703456738071
0.40647202730178833, 1.2223314046859741, 0.9381623443833107, 1707438703464649269
-0.14957857131958008, 0.20470786094665527, 0.726074489341894, 1707438703474636296
-0.2824435234069824, -0.28366178274154663, 0.7403440665671845, 1707438703484669800
0.06534463167190552, 0.46618086099624634, 0.755369498126944, 1707438703494648997
0.2025114893913269, 0.41306400299072266, 0.7253234706482947, 1707438703505062698
-0.1426369547843933, 0.5104501247406006, 0.8701849076130939, 1707438703513711365
-0.3242540955543518, -0.08189839124679565, 0.680463295864464, 1707438703524656551
0.17013728618621826, -0.08514547348022461, 0.6059914801837307, 1707438703537140829
0.3762422800064087, 0.8257010579109192, 1.145550875867894, 1707438703543689305
0.02873891592025757, 0.48521196842193604, 0.6609375218331087, 1707438703554765640
-0.3355209231376648, -0.08638203144073486, 0.7337745030141284, 1707438703564786368
-0.21600580215454102, -0.08217072486877441, 0.7487501131682028, 1707438703574779148
-0.2364664077758789, -0.24603188037872314, 0.7375870856081685, 1707438703585184978
0.3205692172050476, 0.3686679005622864, 0.8058827773192803, 1707438703594770173
0.22875535488128662, 0.612174928188324, 0.760054218483718, 1707438703604833064
0.01654881238937378, 0.061134934425354004, 0.6474101286229011, 1707438703616720969
-0.05809396505355835, 0.4759567379951477, 0.9513198641285109, 1707438703624775626
-0.25892919301986694, 0.4337282180786133, 0.7532022093165426, 1707438703634831335
0.20897984504699707, 0.46225571632385254, 0.7502684983232437, 1707438703644836508
0.20925015211105347, 0.4659554362297058, 0.7384570083827106, 1707438703654914621
-0.22175025939941406, -0.1005067229270935, 0.7305971911626807, 1707438703665231368
0.2459849715232849, 0.1860479712486267, 0.7825807963358502, 1707438703674900452
-0.34276437759399414, -0.1734147071838379, 0.7249953072225039, 1707438703685145136
-0.17316395044326782, 0.4451156258583069, 0.6246540976598312, 1707438703697006572
0.002242147922515869, 0.35890793800354004, 0.9424197125494769, 1707438703704893216
0.45271235704421997, 0.35164982080459595, 0.7550700688532292, 1707438703714930654
0.2468298077583313, 0.42617082595825195, 0.7696091622188627, 1707438703724945302
-0.08109927177429199, -0.04506039619445801, 0.7598706372674773, 1707438703734960364
-0.11523282527923584, 0.4581094980239868, 0.7646892053632254, 1707438703744854076
-0.2845976948738098, 0.6302529573440552, 0.7429651631386267, 1707438703754938978
-0.4335178732872009, 0.06458711624145508, 0.7271563486223701, 1707438703765128135
-0.2355688214302063, 0.21339762210845947, 0.6416690344039856, 1707438703776762821
-0.22547584772109985, -0.09212106466293335, 0.9171799095907943, 1707438703784982400
0.3449057340621948, 0.15116655826568604, 0.7781152243670101, 1707438703795026457
0.7065154314041138, 0.5000652074813843, 0.6359051849399497, 1707438703807488689
0.23559606075286865, 0.07400131225585938, 1.0004484682532544, 1707438703815221389
-0.18450486660003662, 0.33921706676483154, 0.77589089681985, 1707438703825043872
-0.42495495080947876, 0.40732502937316895, 0.7529403899980696, 1707438703835021591
-0.20522457361221313, -0.11477595567703247, 0.7427699866045092, 1707438703845022406
0.12854468822479248, 0.34425562620162964, 0.6083086408159628, 1707438703857123070
0.06045466661453247, 0.48804759979248047, 0.9047101819314487, 1707438703865085897
0.10046857595443726, 0.04129546880722046, 0.7228370222457386, 1707438703875109331
0.01767253875732422, 0.06655615568161011, 0.5929795445517763, 1707438703887606301
-0.31883108615875244, -0.08736824989318848, 1.0021901926907903, 1707438703895123524
-0.09150642156600952, 1.161967158317566, 0.753998238788364, 1707438703905176231
-0.11791068315505981, 1.0285487174987793, 0.733568287837382, 1707438703915292897
0.08503824472427368, -0.3870425820350647, 0.7640625618838325, 1707438703925089540
0.31479358673095703, -0.2575664520263672, 0.6470077816125245, 1707438703937045547
0.1397293210029602, 0.38588088750839233, 0.9646747275988264, 1707438703945125275
-0.028227031230926514, 0.6341874003410339, 0.7666503721011942, 1707438703955195335
-0.28364330530166626, -0.26851886510849, 0.6017914415863617, 1707438703967651526
-0.28364330530166626, -0.26851886510849, 0.9759468203811243, 1707438703975246363
0.41909176111221313, 0.21756601333618164, 0.7509719456033985, 1707438703985313770
0.6150022149085999, 1.0413665771484375, 0.7623146841695784, 1707438703995218229
-0.03353011608123779, 0.16332298517227173, 0.7586316374573713, 1707438704005226999
-0.3833216428756714, -0.17106103897094727, 0.6427107852061186, 1707438704017159387
-0.191658616065979, -0.3775555491447449, 0.9525589775107005, 1707438704025220266
-0.015499293804168701, 0.12300747632980347, 0.7450161437148164, 1707438704035558672
-0.16618919372558594, 0.08863258361816406, 0.7477540808211831, 1707438704055317479
0.35792624950408936, -0.15867280960083008, 0.7441804622918252, 1707438704065319357
0.5743793845176697, 0.5186328291893005, 0.7461236523369803, 1707438704075397480
-0.2184935212135315, 0.7152059078216553, 0.76742133718665, 1707438704085289000
-0.32569611072540283, 0.7084540128707886, 0.7125284655527864, 1707438704095883469
-0.3194558620452881, -0.2880660891532898, 0.799384147032782, 1707438704105303199
-0.11714911460876465, -0.7212250828742981, 0.8392041651770923, 1707438704114446226
0.24083513021469116, 0.6704803705215454, 0.5509304174091454, 1707438704128170202
0.13709527254104614, 1.05380380153656, 1.1930399343044942, 1707438704134369134
-0.08606725931167603, 0.2627166509628296, 0.7368013267909943, 1707438704144399048
-0.2354964017868042, -0.3781019449234009, 0.6743946814378369, 1707438704155442548
-0.051838219165802, -0.36001235246658325, 0.7688267859718922, 1707438704165402172
0.3488900065422058, 1.079399585723877, 0.6544637099263854, 1707438704177120970
-0.1434038281440735, -0.5490569472312927, 0.883952583895457, 1707438704185734634
0.5858101844787598, -0.18392795324325562, 0.7708637579578065, 1707438704195845676
0.14493262767791748, 0.31263089179992676, 0.630686618740229, 1707438704208293956
-0.14947712421417236, 0.983568012714386, 1.077069807706354, 1707438704215510680
-0.3447437286376953, 0.5988325476646423, 0.7562486232356525, 1707438704225526837
-0.12592613697052002, -0.7609492540359497, 0.7399646796224132, 1707438704235538475
0.274070680141449, 0.14802831411361694, 0.7613144774478936, 1707438704245491248
0.3195495009422302, 0.9907587766647339, 0.6644639014054027, 1707438704257009362
0.027880072593688965, 0.4747427701950073, 0.8939499092433105, 1707438704265527652
-0.15562725067138672, 0.07540011405944824, 0.7621549232900401, 1707438704275597243
-0.05645042657852173, -0.36460644006729126, 0.5874551495582258, 1707438704288587091
0.17106109857559204, 0.06007957458496094, 1.1027412984293967, 1707438704295575515
0.16763460636138916, 0.9550710320472717, 0.7639046045697035, 1707438704305587724
-0.5307984352111816, 0.029604732990264893, 0.736529397055578, 1707438704315665996
0.07538872957229614, -0.06470024585723877, 0.7497703245720279, 1707438704325623927
0.4600716829299927, 0.19946134090423584, 0.6438283127019514, 1707438704337269770
0.01728290319442749, 0.33128565549850464, 0.8941776264199576, 1707438704345624644
-0.11087661981582642, 0.8402668833732605, 0.8176488024227516, 1707438704354680798
-0.28990262746810913, -0.11598026752471924, 0.5099747373195107, 1707438704368916314
-0.3184962868690491, -0.38999080657958984, 1.2667001131142461, 1707438704374712994
-0.14721310138702393, 0.6434276700019836, 0.7370408121737817, 1707438704384713001
0.20357614755630493, 0.5562520027160645, 0.6619371307456327, 1707438704395774724
0.3481581211090088, 0.29439735412597656, 0.7393986807649564, 1707438704405778654
-0.1705385446548462, -0.3041929006576538, 0.6633204105936981, 1707438704416862926
-0.3171600103378296, -0.03724777698516846, 0.9423978850881856, 1707438704424710749
0.2458907961845398, 1.4905455112457275, 0.6685192147691482, 1707438704435760036
0.4455328583717346, 0.7653835415840149, 0.5601197649212081, 1707438704448592879
0.0027631521224975586, -0.45688408613204956, 1.0143854137271249, 1707438704455800465
-0.22165721654891968, -0.34376657009124756, 0.7620356563435259, 1707438704465794532
0.17474287748336792, 0.10489565134048462, 0.7738303759958672, 1707438704475823117
0.13425111770629883, 0.4041210412979126, 0.7717577806221354, 1707438704485780936
-0.45055729150772095, 0.226951003074646, 0.6432105132654794, 1707438704497304717
-0.25382572412490845, -0.27127593755722046, 0.8658777283255628, 1707438704505805480
0.4515339136123657, 0.49900275468826294, 0.7211200158388186, 1707438704516049496
0.4489351511001587, 0.6994526982307434, 0.5788119842424567, 1707438704528634208
0.13975274562835693, 0.3705785870552063, 1.0187924014703567, 1707438704535855965
-0.11369574069976807, 0.3353871703147888, 0.7418139745245131, 1707438704545882463
-0.4034813642501831, 0.03587311506271362, 0.7502320843187213, 1707438704555906787
-0.16841858625411987, 0.30415159463882446, 0.7608524258335015, 1707438704565922353
0.23467940092086792, 0.538694441318512, 0.6951841986789339, 1707438704576802365
0.33262497186660767, -0.08557432889938354, 0.8321597065870608, 1707438704585932124
0.07467567920684814, 0.19964653253555298, 0.7511706716189945, 1707438704596088344
-0.13842594623565674, 0.28172171115875244, 0.5997518064246663, 1707438704608669377
0.05149716138839722, 0.11161750555038452, 1.0250995483713479, 1707438704615940790
0.1957373023033142, 0.2539198398590088, 0.729067014642399, 1707438704625974206
-0.14771705865859985, -0.061408162117004395, 0.7290135298200788, 1707438704635988565
-0.03895312547683716, 0.1694912314414978, 0.7356925504576559, 1707438704645962920
0.09982877969741821, 0.8167104125022888, 0.6701625303787331, 1707438704656840508
-0.10976755619049072, 0.49777674674987793, 0.806977784203834, 1707438704665987842
-0.23925864696502686, 0.36563026905059814, 0.74034346201993, 1707438704676145774
-0.11662393808364868, -0.034874558448791504, 0.5942396773405217, 1707438704689034906
0.4614555239677429, 0.4038524627685547, 1.0768326479880845, 1707438704696231595
-0.2097213864326477, 0.3476306200027466, 0.7534769491297144, 1707438704706274225
-0.17356973886489868, 0.18655753135681152, 0.7453710611589549, 1707438704716201244
-0.3123261332511902, 0.392189621925354, 0.7391137617027069, 1707438704726134514
-0.18841248750686646, -0.1052161455154419, 0.6860218591980611, 1707438704736739394
0.6171413660049438, 0.5052538514137268, 0.7822257879182831, 1707438704746130170
0.3687586188316345, 0.5542272925376892, 0.7371075233046176, 1707438704756175089
0.07450014352798462, -0.06288295984268188, 0.6017414032499641, 1707438704768618552
-0.09057533740997314, 0.04501157999038696, 1.0152627804046992, 1707438704776151351
-0.17594236135482788, 0.15669602155685425, 0.7568500867534352, 1707438704786219105
-0.10349118709564209, 0.3844601511955261, 0.7535399449805954, 1707438704796232660
-0.0895848274230957, 0.6334452629089355, 0.7464184770563805, 1707438704806229189
-0.05050849914550781, -0.16070479154586792, 0.6603545232009195, 1707438704817462279
0.3276560306549072, 0.026438593864440918, 0.8691907491067268, 1707438704826174476
-0.09476017951965332, 0.6621296405792236, 0.7537144018099563, 1707438704836238710
-0.2814951539039612, 0.6045652031898499, 0.6045100247929707, 1707438704848635957
0.07191503047943115, 0.6085400581359863, 0.9813052743900966, 1707438704856281557
0.1531440019607544, -0.24521386623382568, 0.75744241769071, 1707438704866252211
0.20713847875595093, 0.009683430194854736, 0.7719006043117997, 1707438704876278100
0.13715314865112305, 0.8096059560775757, 0.7727302680793617, 1707438704886271676
-0.14809352159500122, -0.10325151681900024, 0.7008648793661418, 1707438704897067678
-0.25060898065567017, -0.46970242261886597, 0.8181388904399668, 1707438704906337747
-0.020883619785308838, 0.11820048093795776, 0.7458328050866166, 1707438704916419772
0.16927921772003174, 0.4160310626029968, 0.597934569937263, 1707438704928896122
0.08057242631912231, 0.7801046371459961, 0.9918660700713753, 1707438704936341773
-0.569600522518158, -0.2331228256225586, 0.7222444478569575, 1707438704946425624
-0.13972175121307373, 0.004706025123596191, 0.7422807037531055, 1707438704956384435
0.5471088886260986, 1.363356351852417, 0.739554499892451, 1707438704966404230
0.38621753454208374, 0.5928825736045837, 0.7033682228051482, 1707438704976883799
-0.034041643142700195, -0.1470513939857483, 0.7795347588524727, 1707438704986454603
-0.10306042432785034, -0.34661561250686646, 0.8318059582102485, 1707438704995461258
0.03626048564910889, -0.17055350542068481, 0.6023365113602296, 1707438705008013476
-0.3533392548561096, 0.610643208026886, 0.8899182486831148, 1707438705016427310
-0.5617285966873169, 0.7616094350814819, 0.7277963715433109, 1707438705026487065
0.06206268072128296, -0.24407076835632324, 0.7456900311729691, 1707438705036488624
0.877007782459259, -0.10142850875854492, 0.7663394233040087, 1707438705046448612
0.5722407102584839, 0.16214722394943237, 0.738917893226351, 1707438705056846941
-0.10944974422454834, 0.902109682559967, 0.7900525409879251, 1707438705066469211
-0.5081651210784912, 0.48166733980178833, 0.7342951087062409, 1707438705076544440
-0.5942017436027527, -0.6870154738426208, 0.6660620457432115, 1707438705087672578
-0.11982548236846924, 0.015083670616149902, 0.8333134718753944, 1707438705096609147
0.4826240539550781, 0.9662426710128784, 0.7439103893242353, 1707438705106512485
0.6785274147987366, 0.7300971150398254, 0.7353401358630971, 1707438705116615047
0.12368893623352051, 0.23226547241210938, 0.7559722803020562, 1707438705126559091
-0.15123605728149414, -0.5100908875465393, 0.6960796999571598, 1707438705137520484
-0.0711328387260437, 0.2099272608757019, 0.8367632812863122, 1707438705146645519
0.09468311071395874, 0.9662767052650452, 0.8213244511026295, 1707438705155694467
-0.17302584648132324, 0.06037837266921997, 0.614432899894721, 1707438705167678215
-0.20092588663101196, -0.3890841007232666, 0.92250199281742, 1707438705175678878
-0.0497896671295166, 0.12281167507171631, 0.7333585584629595, 1707438705185713614
0.0038874149322509766, 0.8937748670578003, 0.6593665391796941, 1707438705196886100
0.026182949542999268, -0.1410394310951233, 0.7133415468331752, 1707438705207209921
0.4227907061576843, -0.4441262483596802, 0.7930689831359249, 1707438705216752048
0.22064000368118286, 0.5638774037361145, 0.8708698795900286, 1707438705225698624
-0.3383671045303345, 0.5952364206314087, 0.6997602764599177, 1707438705236725145
-0.19013094902038574, 0.40909266471862793, 0.6390505338473144, 1707438705248597376
-0.312427818775177, -0.020982742309570312, 1.0538508019983075, 1707438705255696516
0.0810745358467102, -0.17262905836105347, 0.6729851437805621, 1707438705266768501
0.4772305488586426, 0.6725411415100098, 0.7420583481646652, 1707438705276780871
0.22328239679336548, 0.46270573139190674, 0.7229307910255929, 1707438705286723127
-0.08400827646255493, -0.04644131660461426, 0.7022478885900199, 1707438705296804820
-0.08199411630630493, 0.0780172348022461, 0.7197647439933582, 1707438705306781744
0.003374755382537842, 0.19438081979751587, 0.7141803759828347, 1707438705316980455
0.14247840642929077, 0.5332306027412415, 0.6168177624403819, 1707438705329043862
0.12661397457122803, 0.39225155115127563, 0.9611666259172745, 1707438705336818164
-0.12182110548019409, -0.4520634412765503, 0.7496546192838269, 1707438705346813710
0.14700716733932495, -0.10440361499786377, 0.7603256591585427, 1707438705356850926
-0.2970280647277832, 0.3860352635383606, 0.7550356758520097, 1707438705366916532
-0.14593660831451416, 0.5169111490249634, 0.7113426693966853, 1707438705377471887
0.11063432693481445, 0.4539586305618286, 0.7966193888519623, 1707438705386843823
0.1383567452430725, -0.07453423738479614, 0.7492243285825843, 1707438705396901480
0.0615612268447876, 0.3730964660644531, 0.6441427932134536, 1707438705408938574
0.10748940706253052, 0.675034761428833, 0.9667005287683659, 1707438705416975526
-0.07172989845275879, 0.09596502780914307, 0.7633995207487484, 1707438705427070944
0.010780930519104004, 0.1404551863670349, 0.7751635269069869, 1707438705436952035
0.22869813442230225, 0.3462364077568054, 0.7611982562442231, 1707438705446916367
0.4939752221107483, 0.08789587020874023, 0.7766285366279345, 1707438705456674129
0.24895519018173218, 0.16488265991210938, 0.6823870914768181, 1707438705467605568
-0.658754289150238, -0.2771990895271301, 0.7299854083863291, 1707438705477655156
-0.4611477851867676, 0.5542290210723877, 0.6494310575390545, 1707438705488945770
0.11069989204406738, 0.8374310731887817, 0.8444023521470533, 1707438705497638190
0.47081637382507324, -0.024701237678527832, 0.8274695827450369, 1707438705506681260
0.30633723735809326, -0.16459053754806519, 0.7372323227854867, 1707438705517031415
-0.11991804838180542, 0.16595345735549927, 0.7166220410952187, 1707438705527646707
-0.19444721937179565, 0.43650156259536743, 0.7381467235101828, 1707438705537845224
-0.6239597797393799, 0.4963424801826477, 0.7476382176970062, 1707438705547665744
-0.67781001329422, 0.2876327633857727, 0.7136637696443457, 1707438705557794752
-0.08899927139282227, -0.10693740844726562, 0.7362758836938822, 1707438705567695397
0.8917422294616699, 0.26952725648880005, 0.8216566618120853, 1707438705576693330
0.9167807698249817, 0.10487329959869385, 0.7523315864076091, 1707438705586694521
-0.02590876817703247, 0.14937901496887207, 0.5792015459107961, 1707438705599616621
-0.3667006492614746, 0.31506872177124023, 1.0349497742468805, 1707438705606703204
-0.6315070390701294, 0.18471771478652954, 0.6586423585905571, 1707438705617754131
-0.16304081678390503, 0.31240153312683105, 0.8023763014345283, 1707438705626703114
0.4732617139816284, 0.1909835934638977, 0.6494565128005888, 1707438705637775464
0.9469273090362549, 0.2769150137901306, 0.6369204910915456, 1707438705649314749
0.027198731899261475, 0.5007985830307007, 0.8782852776472508, 1707438705657809576
-0.5531119108200073, -0.08836078643798828, 0.7403762780898345, 1707438705668037435
0.1929188370704651, -0.13374680280685425, 0.7086356412168925, 1707438705678751646
0.11845767498016357, 0.2601217031478882, 0.835490203092851, 1707438705687805961
-0.3268048167228699, 0.349162757396698, 0.7463649117708014, 1707438705697945841
-0.05339938402175903, 0.1406700611114502, 0.7572327694569719, 1707438705707919071
0.25621116161346436, 0.2754301428794861, 0.774280472379758, 1707438705717810653
0.3479505777359009, 0.8619641661643982, 0.773231299401313, 1707438705727691117
-0.053186118602752686, 0.37833893299102783, 0.7473453422593132, 1707438705737793436
-0.0012207627296447754, -0.08435022830963135, 0.7489563907494885, 1707438705747815508
-0.05577033758163452, -0.04578584432601929, 0.68137235614397, 1707438705758746539
-0.364133358001709, 0.23033344745635986, 0.818962202187651, 1707438705767783811
0.18478471040725708, 0.6779497861862183, 0.7347810230799979, 1707438705777848185
-0.27512431144714355, 0.08581221103668213, 0.7473721186858714, 1707438705787764465
0.028599202632904053, -0.6390109062194824, 0.7587275275580949, 1707438705797833619
0.5427144765853882, 0.26370346546173096, 0.7915976073458547, 1707438705807696549
0.21251052618026733, 0.7653098106384277, 0.7543251129197964, 1707438705817762433
-0.321613073348999, 0.7124805450439453, 0.7361315466201187, 1707438705827812512
-0.23888272047042847, -0.05008786916732788, 0.6026970356572985, 1707438705839893790
0.13895148038864136, -0.42418748140335083, 0.9291078078976701, 1707438705847778697
0.225741446018219, 0.5539887547492981, 0.7402723921796582, 1707438705857827346
-0.2673117518424988, 0.9349621534347534, 0.7300809008481766, 1707438705867820256
-0.2196664810180664, -0.16496658325195312, 0.7136948153698365, 1707438705877972564
0.0877644419670105, -0.5750619173049927, 0.6916299063010621, 1707438705888662343
-0.05616956949234009, 0.03269714117050171, 0.8300249181283292, 1707438705897801587
0.38280177116394043, 1.0263224840164185, 0.7676022535428871, 1707438705907869732
0.29536235332489014, 0.9526463150978088, 0.6110825939641223, 1707438705920252426
-0.151442289352417, -0.5996015071868896, 1.0055946064984642, 1707438705927798967
