acc_x, acc_y, angular_z, stamp, 
0.009589076042175293, 0.01720792055130005, -2.330240352385096e-06, 1707438719026133859
-0.03702962398529053, -0.0025878548622131348, -8.246551779306892e-06, 1707438719033360150
-0.011832475662231445, -0.0006910562515258789, -6.230182342246265e-06, 1707438719042925161
-0.017183423042297363, 0.004907667636871338, -5.889640857978237e-06, 1707438719053043316
0.0008697509765625, -0.00586855411529541, -5.9959070522967896e-06, 1707438719062982122
0.02968120574951172, 0.013756275177001953, -2.8872563604920384e-06, 1707438719073299947
-0.022404193878173828, 0.004992365837097168, -6.191415158959363e-06, 1707438719082925045
0.006401777267456055, -0.01660054922103882, -5.939841215937077e-06, 1707438719092957868
0.015395641326904297, 0.0014150142669677734, -4.819499598334593e-06, 1707438719105322927
0.017215847969055176, 0.012096226215362549, -3.790889921371706e-06, 1707438719113181517
-0.004439055919647217, -0.0019073486328125, -3.3664042807236884e-06, 1707438719122031113
-0.04381293058395386, 0.0068168044090271, -5.9474541124703335e-06, 1707438719132051212
-0.0186232328414917, -0.010975658893585205, -2.706910745520989e-06, 1707438719143057204
-0.016677021980285645, -0.003920316696166992, -2.8485417629059415e-06, 1707438719153516062
-0.018380463123321533, -0.007367312908172607, -3.1374484671859423e-06, 1707438719163011936
-0.020009338855743408, -0.009193897247314453, -2.964308646045041e-06, 1707438719173062727
-0.018081963062286377, 0.005312085151672363, 6.464368312706616e-10, 1707438719185861682
-0.03405195474624634, 0.01969999074935913, -4.152603085803878e-06, 1707438719193036641
0.011026501655578613, 0.023233890533447266, 6.920748823860964e-10, 1707438719203085899
0.06501197814941406, 0.005087673664093018, -2.960895230465058e-06, 1707438719213149028
0.04441094398498535, 0.02006685733795166, -0.0, 1707438719223222749
0.010228633880615234, 0.004036843776702881, -0.0003825909595603291, 1707438719233271290
0.015440821647644043, 0.02032780647277832, -0.0007875738042555034, 1707438719243071814
-0.006376087665557861, 0.009515821933746338, -0.0007774276456940718, 1707438719253115333
-0.011905074119567871, 0.0007419586181640625, -0.0014649749733475653, 1707438719265667102
0.01713848114013672, -0.006515622138977051, -0.0010169104226898653, 1707438719273111031
-0.10836416482925415, 0.0010437369346618652, 0.008793649320163896, 1707438719283200275
-0.15515083074569702, 0.04278749227523804, 0.045715182257025255, 1707438719293207157
-0.037281334400177, 0.4764317274093628, 0.151319527656996, 1707438719303290801
-0.43460744619369507, 1.0308457612991333, 0.315758782226642, 1707438719313612640
0.16768097877502441, 0.5599657893180847, 0.5131415820989123, 1707438719323320882
0.46126294136047363, 0.36859947443008423, 0.6277053377788597, 1707438719333316777
0.1978110671043396, 0.4796862006187439, 0.5935938194273245, 1707438719345356946
-0.14220279455184937, 0.5811812877655029, 0.9853445680758497, 1707438719353212712
-0.13971000909805298, 0.32140052318573, 0.8287494168076646, 1707438719363274091
-0.16184747219085693, 0.20311909914016724, 0.907138157197248, 1707438719373277780
-0.2142881155014038, 0.3457295298576355, 0.9916424857323944, 1707438719383249153
-0.15556538105010986, 0.29639941453933716, 1.0616410535562912, 1707438719393262181
-0.224564790725708, 0.10599017143249512, 1.116783157443566, 1707438719403323863
-0.3813210725784302, 0.04709142446517944, 1.1563245987200155, 1707438719413473292
-0.21516793966293335, 0.2075217366218567, 1.039118819415717, 1707438719425322953
0.21926486492156982, 0.35306960344314575, 1.624460079836839, 1707438719433281310
0.13527661561965942, 0.25156092643737793, 1.3427971116711541, 1707438719443342672
-0.3525661826133728, 0.23749244213104248, 1.4026371717728383, 1707438719453400421
-0.3597269058227539, 0.4931233525276184, 1.4509592777588405, 1707438719463551362
-0.26492786407470703, 0.39177823066711426, 1.5607898053023956, 1707438719473388620
0.007963776588439941, 0.24301105737686157, 1.5991218256228277, 1707438719483353349
0.010308563709259033, 0.3494132161140442, 1.6262372957781248, 1707438719493551410
-0.06889837980270386, 0.2859811782836914, 1.4054381503461448, 1707438719505793026
-0.22460925579071045, 0.11936193704605103, 2.2488854709349466, 1707438719513642079
-0.46533483266830444, -0.28342676162719727, 1.8467484149699633, 1707438719523412078
-0.12266939878463745, 0.1828458309173584, 1.8377406792750357, 1707438719533473044
-0.05226105451583862, 0.4821407198905945, 1.906033439188881, 1707438719543436635
0.13697469234466553, 0.3456385135650635, 1.942910069678608, 1707438719553486064
0.027768313884735107, -0.06950110197067261, 2.016126675373963, 1707438719563456699
-0.04625171422958374, 0.2962455749511719, 2.0583577104066118, 1707438719573462611
0.19492322206497192, 0.6060768961906433, 1.7322207534070377, 1707438719585470112
-0.025048553943634033, 0.09348481893539429, 2.5889146537258383, 1707438719593467353
-0.38122957944869995, -0.6742850542068481, 2.0423553967013333, 1707438719603522555
-0.2776743769645691, -0.06372058391571045, 2.0436238563726516, 1707438719613531941
0.015251457691192627, 0.461034893989563, 2.036273709075808, 1707438719623512768
-0.024847447872161865, -0.3521019220352173, 1.9432771825749318, 1707438719633906380
-0.15780627727508545, -0.8317261934280396, 2.0843233421866354, 1707438719643544891
-0.000785529613494873, -0.054660677909851074, 1.9855578264108469, 1707438719653557387
0.22441595792770386, 0.5139259696006775, 1.6589963539555694, 1707438719665326063
-0.19067758321762085, -0.2563943862915039, 2.33669011626632, 1707438719673548598
-0.5886350274085999, -0.714138388633728, 1.9058891713872297, 1707438719683599873
-0.11693084239959717, 0.4067739248275757, 1.9112412307561624, 1707438719693633249
0.027103662490844727, 0.6017870306968689, 1.90231496582147, 1707438719703670591
-0.007669568061828613, -0.03273063898086548, 1.911595458039852, 1707438719713634443
-0.16863632202148438, -0.05912882089614868, 1.9068598926587197, 1707438719723656640
0.016597092151641846, 0.36333781480789185, 1.9193193930392287, 1707438719733653829
-0.09834259748458862, -0.025881588459014893, 1.6312244585300701, 1707438719745388885
-0.47212451696395874, -0.762949526309967, 2.31518617224573, 1707438719753632024
-0.09331738948822021, -0.29696035385131836, 1.8946037277175316, 1707438719763723860
0.29204726219177246, 0.5314046740531921, 1.9091267668606724, 1707438719773727375
0.18370717763900757, 0.06369823217391968, 2.124524482621925, 1707438719782709120
-0.06788182258605957, -0.6531023979187012, 1.7323256275591081, 1707438719793742746
-0.011877119541168213, 0.06849730014801025, 1.8793126345106481, 1707438719803885580
-0.03391885757446289, 0.8122604489326477, 1.8658592189013812, 1707438719813982706
-0.38028985261917114, -0.48487794399261475, 1.5252436940200889, 1707438719826183890
-0.3148922920227051, 0.08673924207687378, 2.4517095011137378, 1707438719833799395
-0.013066709041595459, 0.7637385129928589, 1.8503527040683634, 1707438719844030844
-0.08284348249435425, 0.09076100587844849, 1.9431744176230588, 1707438719853886415
-0.24493169784545898, -0.386863648891449, 1.9619709437178645, 1707438719863784675
-0.0830734372138977, 0.20985066890716553, 1.9598650240526667, 1707438719873825901
0.0214194655418396, 0.22787177562713623, 1.9656016567603516, 1707438719883834937
-0.2642289400100708, -0.39715975522994995, 1.9505847841825914, 1707438719893818049
-0.11556953191757202, -0.25520920753479004, 1.7684699262226953, 1707438719904710329
-0.16507428884506226, 0.33239883184432983, 2.0942915425416686, 1707438719913816526
-0.015117526054382324, 0.10782819986343384, 1.841081133513528, 1707438719924057439
-0.02676868438720703, -0.15126311779022217, 1.5055021036866343, 1707438719936473375
-0.02389425039291382, 0.3344065546989441, 2.5295592182735107, 1707438719943877500
0.13027942180633545, 0.51677006483078, 1.877152254816519, 1707438719953937919
-0.2589314579963684, -0.1808375120162964, 1.9111287700586814, 1707438719963904593
-0.292141854763031, -0.24957752227783203, 1.9157668273932391, 1707438719973922376
2.968311309814453e-05, 0.14834290742874146, 1.6688304551488204, 1707438719985443414
0.10738128423690796, -0.08268707990646362, 2.264338576096895, 1707438719993919803
-0.18220943212509155, -0.4891107678413391, 1.9069150930813292, 1707438720003980035
-0.12063634395599365, 0.11039447784423828, 1.6430923278651959, 1707438720015676363
-0.04028522968292236, 0.7250266075134277, 2.320392383853311, 1707438720023966891
-0.09400719404220581, 0.17179280519485474, 1.9040788384474734, 1707438720034024504
-0.4822061061859131, -0.08624684810638428, 1.9072370489460349, 1707438720044042844
-0.22542476654052734, 0.5979445576667786, 1.9177692032519789, 1707438720054031997
0.14689046144485474, 0.29945409297943115, 1.8474738425209225, 1707438720064400156
-0.11216646432876587, -0.7365209460258484, 2.2231298211093034, 1707438720073021361
-0.12280243635177612, -0.20579618215560913, 1.742902659526185, 1707438720084062414
0.019153594970703125, 0.42290109395980835, 1.6599456346512294, 1707438720095689400
0.08248043060302734, 0.002862095832824707, 2.282500925049001, 1707438720104133253
-0.30947375297546387, -0.43796300888061523, 1.9256311669327655, 1707438720114123210
-0.27369171380996704, 0.2783468961715698, 1.9223702909630758, 1707438720124131602
-0.11928683519363403, 0.4634498953819275, 1.8801124924181944, 1707438720134336867
-0.1563020944595337, -0.08069032430648804, 1.6617581179844068, 1707438720145842925
-0.07289767265319824, 0.3317726254463196, 2.294472769090138, 1707438720154189539
0.17506271600723267, 0.6451589465141296, 1.9195100476382914, 1707438720164205455
0.4160674214363098, -0.15911191701889038, 1.6836171102241855, 1707438720175709930
-0.10159897804260254, -0.2766587734222412, 2.313868469018579, 1707438720184157873
-0.16389280557632446, 0.43444234132766724, 1.9467806499532687, 1707438720194211315
0.2423771619796753, 0.07926750183105469, 1.9278486188307302, 1707438720204324740
-0.008765935897827148, -0.4194200038909912, 1.9684781429681963, 1707438720214200968
-0.417883038520813, 0.1664239764213562, 1.7274933437460707, 1707438720225386268
-0.13086259365081787, 0.482482373714447, 2.1692643005216516, 1707438720234209898
0.07512259483337402, -0.1307801604270935, 1.8954811427801426, 1707438720244274798
-0.3674546480178833, -0.06355816125869751, 1.4972801044599047, 1707438720257064156
-0.4499644637107849, 0.5372703075408936, 2.6473617092956965, 1707438720264299289
-0.2562185525894165, 0.015418648719787598, 1.9058993854966508, 1707438720274291563
0.20995867252349854, -0.28212088346481323, 1.8870429196018699, 1707438720284352980
-0.05656123161315918, 0.11706501245498657, 1.909001282820848, 1707438720294299957
-0.103690505027771, 0.03539168834686279, 1.7035124157878583, 1707438720305422905
0.2261596918106079, -0.24232488870620728, 2.1025252003610793, 1707438720314415283
0.04158145189285278, 0.2679728865623474, 1.8419551669029004, 1707438720324666412
-0.6439501047134399, -0.14674901962280273, 1.4818448280570888, 1707438720337376181
-0.2645033001899719, 0.18188780546188354, 2.6295467673791544, 1707438720344547578
-0.14312905073165894, 0.6657284498214722, 1.9211269165369536, 1707438720354396144
-0.07243305444717407, 0.031296491622924805, 1.8791955089426822, 1707438720364470303
0.27224189043045044, -0.4499465823173523, 1.9125305717503795, 1707438720374407637
-0.05730491876602173, 0.13022679090499878, 1.6723772638606413, 1707438720385842978
-0.5337523818016052, 0.15698957443237305, 2.2350674694967627, 1707438720394389081
0.02245229482650757, 0.04294180870056152, 1.882784733584459, 1707438720404460798
0.36980319023132324, 0.30312299728393555, 1.4836756779246203, 1707438720417203541
0.07547301054000854, 0.30697792768478394, 2.62185428090605, 1707438720424441982
-0.21382790803909302, -0.23459404706954956, 1.8988981669992746, 1707438720434463977
-0.1622152328491211, 0.04091113805770874, 1.904715986716901, 1707438720444492884
0.054641902446746826, 0.6435362696647644, 1.9168779231495683, 1707438720454499307
-0.22579514980316162, -0.0908016562461853, 1.603350254497444, 1707438720466439744
-0.1710723638534546, -0.2630692720413208, 2.371986518779577, 1707438720474520967
0.03387594223022461, 0.6192387342453003, 2.0931582676504683, 1707438720483710921
-0.12545830011367798, 0.5784052610397339, 1.4731020811400815, 1707438720496717747
-0.501288890838623, -0.10459750890731812, 2.4458513781395403, 1707438720504545551
-0.18259555101394653, -0.032026588916778564, 1.923503201805336, 1707438720514564552
-0.0030309557914733887, 0.0845375657081604, 1.929551056984033, 1707438720524610422
-0.21529263257980347, -0.004297435283660889, 1.9464042573287224, 1707438720534580194
-0.11976748704910278, 0.03236722946166992, 1.7896136828114302, 1707438720545397219
-0.24688076972961426, -0.06597030162811279, 2.1012966114219003, 1707438720554609096
0.02044379711151123, -0.10699248313903809, 1.9342848967942612, 1707438720564627947
-0.07206326723098755, 0.5441784262657166, 1.500112944494298, 1707438720577548711
0.12167572975158691, 0.5616586208343506, 3.1538726289483026, 1707438720583677113
0.34325331449508667, -0.02704620361328125, 1.9221335526539076, 1707438720593677209
0.10418528318405151, 0.2938554286956787, 1.7322770936339988, 1707438720604761706
0.10757750272750854, 0.7770036458969116, 2.151356518062662, 1707438720613682883
-0.1572858691215515, -0.059765517711639404, 1.6143618401556494, 1707438720625501362
-0.21047163009643555, -0.31769078969955444, 2.3185813781307014, 1707438720633682443
-0.2862902283668518, 0.01528710126876831, 1.8821587088922218, 1707438720643708824
-0.23284846544265747, -0.4017865061759949, 1.3235237248795753, 1707438720657931612
0.08693504333496094, -0.17077600955963135, 2.7625243977256058, 1707438720664763343
-0.02525109052658081, 0.5235481858253479, 1.8915905137462583, 1707438720674780702
0.026395976543426514, 0.07826900482177734, 1.892372928461745, 1707438720684826266
-0.05972898006439209, 0.031534552574157715, 1.9147419735065734, 1707438720694751409
0.005231797695159912, 0.5547865033149719, 1.7674422331735746, 1707438720705456458
0.009955108165740967, 0.21952301263809204, 2.0095077683214306, 1707438720714802582
0.24403083324432373, 0.06369590759277344, 1.858150292873398, 1707438720724848341
0.15735065937042236, 0.5347835421562195, 1.493059972502145, 1707438720737342353
-0.0512620210647583, 0.27160561084747314, 2.502699409055021, 1707438720744825754
-0.2893525958061218, -0.0037134885787963867, 1.88383608149921, 1707438720754849315
-0.35689204931259155, 0.2710829973220825, 1.8801994013398553, 1707438720764989306
-0.18976855278015137, 0.11003118753433228, 1.88874207561391, 1707438720775125002
-0.5212117433547974, 0.014349102973937988, 1.7330210667612058, 1707438720786193683
-0.2645353078842163, 0.38243383169174194, 2.215761062785323, 1707438720794865327
0.32566243410110474, 0.09481018781661987, 1.9153821020448014, 1707438720804901093
0.01486217975616455, -0.010976254940032959, 1.5468638787175466, 1707438720817344218
-0.3675452470779419, 0.43506765365600586, 2.5261003081691853, 1707438720825002015
-0.37264519929885864, -0.11012798547744751, 1.8806431321721973, 1707438720835355343
-0.4395897388458252, 0.39365214109420776, 2.0208860227626384, 1707438720845047895
0.135328471660614, 0.18039238452911377, 1.9617541950041324, 1707438720855071319
0.18767601251602173, -0.20307791233062744, 1.8975009814512178, 1707438720865480828
0.018988370895385742, 0.406150221824646, 2.0899311355041355, 1707438720874997786
0.3635462522506714, 0.25533002614974976, 1.9616988890799831, 1707438720885141156
0.11363482475280762, 0.2569246292114258, 1.5592044500093005, 1707438720897794438
-0.06435918807983398, 0.2978566288948059, 2.6963189273274706, 1707438720905017327
0.05865514278411865, -0.12254804372787476, 1.8979596509327046, 1707438720915168794
-0.024195373058319092, 0.13205546140670776, 2.1395018088594817, 1707438720924088305
0.09527069330215454, 0.3504455089569092, 1.7276060644646636, 1707438720935027709
0.25032007694244385, -0.2213878631591797, 1.7504928530476869, 1707438720945787200
-0.06434530019760132, 0.018374502658843994, 2.261144166989529, 1707438720954083269
-0.31402909755706787, 0.32175636291503906, 1.6936928335729513, 1707438720965099636
-0.10188931226730347, 0.04792428016662598, 1.4558800088193475, 1707438720977877767
-0.3827335834503174, 0.023324251174926758, 2.5557472828875336, 1707438720985155143
-0.5627416372299194, 0.08340221643447876, 1.8355352079670515, 1707438720995356909
0.17866098880767822, 0.4466133117675781, 1.9177138138925938, 1707438721005154518
0.20847880840301514, 0.893197238445282, 1.8473551622980908, 1707438721015287365
-0.25624948740005493, 0.3196621537208557, 1.832576997451032, 1707438721025551437
-0.4311312437057495, -0.14819622039794922, 1.985191197082512, 1707438721035154013
-0.754485011100769, 0.22451001405715942, 1.927398880413583, 1707438721045197421
-0.20927119255065918, 0.4869237542152405, 1.5450570294959027, 1707438721057824522
0.07694530487060547, -0.29243606328964233, 2.62433514431606, 1707438721065240302
-0.18618619441986084, -0.13056564331054688, 1.9347582076534844, 1707438721075282739
0.19067370891571045, 0.40453630685806274, 1.938042244524221, 1707438721085344696
0.07151180505752563, 0.4364950656890869, 1.971252254442655, 1707438721095238382
-0.18540596961975098, 0.4216424822807312, 1.8325898534522511, 1707438721105871685
-0.10987573862075806, -0.09913045167922974, 2.0804439877086884, 1707438721115279624
0.14896947145462036, -0.011107861995697021, 1.957924563338805, 1707438721125302214
-0.013919711112976074, 0.6247453689575195, 1.6183709342426913, 1707438721137347114
0.15294820070266724, 0.013283193111419678, 2.419767898331091, 1707438721145307412
0.11825048923492432, 0.013559877872467041, 1.8946855764111605, 1707438721155358760
-0.17203956842422485, 0.2737274169921875, 1.8805943834700007, 1707438721165413322
0.2808784246444702, 0.0887681245803833, 1.886216974905431, 1707438721175384695
0.32377535104751587, 0.3630779981613159, 1.8522785211014912, 1707438721185491529
0.2498939037322998, 0.2571409344673157, 1.8968168125027192, 1707438721195374133
0.1976006031036377, -0.020460665225982666, 1.8294314488914585, 1707438721205641206
0.08300560712814331, 0.23844867944717407, 1.592456617524211, 1707438721217383483
-0.04305654764175415, 0.12409669160842896, 2.3133057425200154, 1707438721225417538
-0.244942307472229, -0.057961344718933105, 1.8114290724273416, 1707438721235560385
-0.4019891023635864, 0.2543758749961853, 1.8341098400542877, 1707438721245470777
-0.6126753091812134, 0.13360512256622314, 1.8142604698996148, 1707438721255489245
-0.05181694030761719, 0.34808582067489624, 1.8312325208541913, 1707438721265466934
0.19421923160552979, 0.5346879959106445, 1.8446999421650696, 1707438721275495935
0.16260671615600586, 0.16505759954452515, 1.88025289080936, 1707438721285485902
-0.18485510349273682, 0.3982720971107483, 1.5324394820718379, 1707438721297852311
-1.0360561609268188, 0.5865211486816406, 2.5005539630881612, 1707438721305510331
-0.6999308466911316, 0.2085789442062378, 1.9178871757459415, 1707438721315571213
-0.27582675218582153, 0.41501808166503906, 1.921190109985184, 1707438721325634085
-0.19836914539337158, -0.1528955101966858, 1.9415449800637612, 1707438721335612974
-0.5503830313682556, 0.6658173203468323, 1.8954412450269384, 1707438721345784284
-0.47715622186660767, 0.2370200753211975, 2.1616157099310263, 1707438721354690972
-0.2958282232284546, 0.23069095611572266, 1.7870879413012457, 1707438721365568275
-0.20472735166549683, 0.24438107013702393, 1.6418972824427363, 1707438721377502381
0.4827491044998169, -0.018246173858642578, 2.45531586958186, 1707438721385588238
0.053372085094451904, 0.11897093057632446, 1.960335229585692, 1707438721395782918
-0.488216757774353, 0.2837591767311096, 2.0194882323805095, 1707438721405635825
-0.20235151052474976, -0.00985652208328247, 1.9930678048140213, 1707438721415648717
-0.2904597520828247, 0.2939069867134094, 1.950904701029493, 1707438721425868330
-0.4891585111618042, 0.12397879362106323, 2.0286494711631415, 1707438721435645515
0.23069852590560913, 0.37542909383773804, 1.9778029704629723, 1707438721445645841
0.40767550468444824, 0.34612494707107544, 1.6139112248251224, 1707438721457793199
0.20292025804519653, -0.10021811723709106, 2.8455269212275573, 1707438721464670986
0.14631670713424683, 0.22701925039291382, 1.769597254506453, 1707438721475724839
-0.2712961435317993, 0.09858840703964233, 1.932091225792474, 1707438721485762368
0.2031136155128479, -0.13573747873306274, 2.1591801362275587, 1707438721494695584
0.4136810898780823, 0.2539488673210144, 1.7094592157858493, 1707438721505805179
0.4880342483520508, 0.06215560436248779, 1.8756433553380156, 1707438721515732155
0.8222773671150208, 0.004480183124542236, 1.8408430179117874, 1707438721525759041
-0.09420132637023926, 0.021160423755645752, 1.508923192528853, 1707438721537821471
-0.8757150173187256, -0.10122072696685791, 2.2667925654103502, 1707438721545781734
-0.5166327953338623, 0.8067274689674377, 1.762593095997934, 1707438721555992655
-0.27797192335128784, 0.6384310126304626, 1.449431219373382, 1707438721568341558
0.0698462724685669, -0.023457348346710205, 2.4145657524069235, 1707438721575842068
-0.07815128564834595, 0.15247005224227905, 1.836192173712847, 1707438721585871900
-0.5746538639068604, 0.3117528557777405, 1.8657452444879137, 1707438721595830737
-0.49967849254608154, 0.35516446828842163, 1.8548004683809034, 1707438721605883494
-0.4600679874420166, 0.03211569786071777, 1.504522776466733, 1707438721618172616
-0.2259311079978943, -0.06172060966491699, 2.382717587075483, 1707438721625883251
0.8937227725982666, 0.367917001247406, 1.7887807569255236, 1707438721636083615
0.5986950993537903, 0.4112316370010376, 1.8170423023732247, 1707438721655955491
-0.35602182149887085, 0.33381712436676025, 1.8095568514299012, 1707438721665978801
-0.5807719826698303, 0.4155626893043518, 1.7986139771522092, 1707438721676091182
-0.31798166036605835, 0.23839104175567627, 1.862949632121772, 1707438721685940204
-0.14688891172409058, 0.19661051034927368, 1.6031027751194975, 1707438721697409347
-0.07234805822372437, 0.0035846829414367676, 2.1631733018582793, 1707438721705949026
0.14503777027130127, 0.4514445662498474, 1.8525688375189342, 1707438721715982524
-0.30352771282196045, 0.6636042594909668, 1.4868239906230583, 1707438721728468661
-0.39587128162384033, 0.048511385917663574, 2.4847625746288444, 1707438721735983300
-0.19150370359420776, 0.21110200881958008, 1.8475747829173206, 1707438721746117104
-0.052839577198028564, 0.3348460793495178, 1.866891806502991, 1707438721756131110
-0.04687148332595825, 0.12266963720321655, 1.8898304419274028, 1707438721766041084
0.32460927963256836, 0.32111239433288574, 1.6220956040738452, 1707438721777512189
-0.14761990308761597, 0.06857901811599731, 2.1637064602599385, 1707438721786071503
-0.05730539560317993, 0.3279741406440735, 1.8011416011245271, 1707438721796309373
-0.03467142581939697, 0.5605674982070923, 1.4576843050409867, 1707438721808853928
-0.4794461131095886, -0.004789113998413086, 2.832133999428486, 1707438721815331168
-0.13500863313674927, 0.09250593185424805, 1.8727844184584448, 1707438721825164402
-0.3755461573600769, 0.29912906885147095, 1.6690858078271895, 1707438721836215653
-0.2976267337799072, 0.16417187452316284, 1.8596487807942115, 1707438721846196612
-0.3834835886955261, 0.0008288025856018066, 1.6335463766488463, 1707438721857542694
0.22381103038787842, -0.01882624626159668, 2.124351099650832, 1707438721866257910
0.6936666369438171, 0.7082697153091431, 1.8165549759164503, 1707438721876389829
0.8278980255126953, 0.22995495796203613, 1.4403697186632312, 1707438721888903479
0.7226216793060303, 0.1446182131767273, 2.436725277842318, 1707438721896166421
0.10792338848114014, 0.1563841700553894, 1.7188794195598733, 1707438721906263846
-0.27437835931777954, 0.049254655838012695, 1.711498470969576, 1707438721916247942
-0.19692766666412354, 0.08448022603988647, 1.7063688136484263, 1707438721926232028
-0.43079710006713867, 0.062110185623168945, 1.4184555626497888, 1707438721938154767
-0.2956688404083252, -0.21034866571426392, 2.0843604221190715, 1707438721946257841
0.21523767709732056, 0.11586129665374756, 1.6479874905652145, 1707438721956532967
-0.2988828420639038, 0.20446085929870605, 1.361473450908915, 1707438721968951699
0.1799691915512085, 0.6450894474983215, 2.238724660428256, 1707438721976536411
0.08515971899032593, 0.6367365717887878, 1.7295060023561821, 1707438721986332079
-0.3635040521621704, -0.08684736490249634, 1.6861030898436389, 1707438721996367783
-0.1791946291923523, 0.48510241508483887, 1.6743277356676198, 1707438722006524373
-0.2695314884185791, 0.49919557571411133, 1.4748464907603518, 1707438722018011818
0.08776909112930298, 0.06806308031082153, 1.8938199869693646, 1707438722026952621
0.2737247347831726, 0.2206295132637024, 1.7867393187585086, 1707438722036409371
0.08658784627914429, 0.1510680913925171, 1.651837071609837, 1707438722056633653
-0.27793359756469727, 0.21007609367370605, 1.8232429169286526, 1707438722065721050
-0.40340954065322876, -0.19720041751861572, 1.475531885089372, 1707438722076924277
0.12597501277923584, 0.7685306072235107, 1.7422367807431516, 1707438722086426665
0.3674682378768921, 0.6684904098510742, 1.480167859056592, 1707438722097530608
0.05712878704071045, -0.10405665636062622, 1.7522670477539728, 1707438722106915612
-0.33056724071502686, 0.008672237396240234, 1.7219655738480866, 1707438722116508568
-0.5634005665779114, 0.17272478342056274, 1.6548286373475811, 1707438722136478284
-0.18502366542816162, 0.11273193359375, 1.6277528160162384, 1707438722156668034
0.3764856457710266, 0.3848731517791748, 1.6776066365434594, 1707438722166542770
0.0713801383972168, 0.5407586693763733, 1.428316981533618, 1707438722178186056
-0.471000611782074, 0.08644235134124756, 1.9961404068195034, 1707438722186556983
-0.5346880555152893, 0.3431650400161743, 1.6291694764391098, 1707438722196815507
0.05427473783493042, 0.241599440574646, 1.6757644271909664, 1707438722216754225
0.46725374460220337, 0.486971914768219, 1.6834360269556838, 1707438722226652412
0.08954071998596191, 0.11030250787734985, 1.6631311378437603, 1707438722236656504
0.06898611783981323, 0.39334654808044434, 1.6334761784600778, 1707438722246851226
-0.12368154525756836, 0.5135725140571594, 1.5042462167676884, 1707438722257860978
-0.21323120594024658, 0.07546919584274292, 1.8835818955683976, 1707438722266649332
0.1935552954673767, 0.12293189764022827, 1.6177285404242272, 1707438722276809011
0.35094207525253296, 0.05563974380493164, 1.2309825768970333, 1707438722290052265
0.24227428436279297, -0.1914597749710083, 2.320157427172149, 1707438722297056205
0.1363885998725891, 0.1719975471496582, 1.541640698055732, 1707438722307446412
-0.1415300965309143, 0.3652501702308655, 1.710193792971657, 1707438722316721948
-0.07573884725570679, 0.24178463220596313, 1.5795241254898975, 1707438722326718761
0.04305434226989746, 0.4529101252555847, 1.3755441200070262, 1707438722338142304
0.006559431552886963, 0.28207987546920776, 1.828057920285847, 1707438722346811972
-0.26658952236175537, 0.46809643507003784, 1.562862688514781, 1707438722357019672
-0.6293850541114807, 0.049112915992736816, 1.3219694794897399, 1707438722369128964
-0.17416024208068848, 0.3803868293762207, 2.0948173639874463, 1707438722376823283
-0.5366701483726501, 0.12651962041854858, 1.5916694134756921, 1707438722386975230
-0.20865243673324585, 0.06394308805465698, 1.6465163307867368, 1707438722396832704
0.0020813941955566406, 0.5483915209770203, 1.6309388422853495, 1707438722406822786
0.004209458827972412, 0.21419835090637207, 1.5192654656731615, 1707438722417525178
0.07859504222869873, 0.38727712631225586, 1.751729767999753, 1707438722426843796
-0.3904595971107483, 0.287444531917572, 1.6271990062581783, 1707438722436883780
-0.2887403964996338, 0.3960285782814026, 1.6330024347850778, 1707438722456907660
-0.03347069025039673, 0.25162285566329956, 1.624470936128904, 1707438722466933561
0.18915891647338867, 0.03426849842071533, 1.6222021194883454, 1707438722476990099
0.23776161670684814, 0.35082244873046875, 1.6182990104586907, 1707438722487077753
-0.29384684562683105, 0.1297728419303894, 1.5020756018042758, 1707438722497844121
-0.24618381261825562, 0.2919338345527649, 1.76820662891405, 1707438722506911424
-0.009361028671264648, 0.5147916078567505, 1.5539325469639655, 1707438722517079012
-0.10364240407943726, -0.01222163438796997, 1.2760550680976848, 1707438722529313981
0.48605215549468994, 0.28460371494293213, 2.0375022184596574, 1707438722536945319
0.1881006956100464, 0.32245105504989624, 1.5420711405789467, 1707438722546986383
-0.11932957172393799, -0.0014560818672180176, 1.5514838189647162, 1707438722557032475
-0.17956995964050293, 0.37832581996917725, 1.5631485946857824, 1707438722567005820
-0.3217047452926636, 0.2799828052520752, 1.398872399234087, 1707438722578089252
-0.1578351855278015, 0.08311742544174194, 1.7366553931232969, 1707438722587056023
-0.2259892225265503, 0.30123811960220337, 1.5423651437473602, 1707438722597142376
-0.2831159234046936, -0.12523263692855835, 1.280085215286669, 1707438722609363310
-0.003222346305847168, 0.9435819983482361, 2.0604190147433745, 1707438722617029296
-0.01616525650024414, 0.9347711205482483, 1.5665212389096963, 1707438722627113771
0.13065725564956665, -0.2047697901725769, 1.6003713027445017, 1707438722637091606
-0.315818727016449, -0.12318938970565796, 1.617063506543165, 1707438722647067097
-0.4823782444000244, 0.3517904281616211, 1.5243910427639702, 1707438722657648445
0.07795143127441406, 0.4740675091743469, 1.702967021808562, 1707438722667089745
0.2314857840538025, 0.3347945809364319, 1.5581328574310858, 1707438722677224346
0.1290683150291443, -0.11872190237045288, 1.2855631877628244, 1707438722689310181
0.41832906007766724, 0.26631027460098267, 2.245410476610302, 1707438722696136406
0.04308450222015381, 0.4818981885910034, 1.4834602972943585, 1707438722706269959
-0.3913567066192627, -0.13921403884887695, 1.3784987366807044, 1707438722717149582
-0.17467492818832397, 0.19172143936157227, 1.4992735808734965, 1707438722727156183
-0.2885112762451172, 0.1609816551208496, 1.5606085859263987, 1707438722736793844
-0.05477029085159302, 0.2680767774581909, 1.4569412453750472, 1707438722747235426
-0.08006668090820312, 0.7171977162361145, 1.523870125209009, 1707438722757202739
-0.4069633483886719, 0.04186362028121948, 1.2036655780417946, 1707438722769852254
0.04442542791366577, 0.5438075065612793, 2.0724554418291876, 1707438722777241217
-0.19704842567443848, 0.6206422448158264, 1.51600718271814, 1707438722787309584
-0.10197794437408447, -0.032414793968200684, 1.5353995155137847, 1707438722797275506
0.3643590211868286, 0.23681789636611938, 1.5041519106668244, 1707438722807415992
0.18601077795028687, 0.10293352603912354, 1.4900335255158086, 1707438722817627473
-0.1612371802330017, -0.07491946220397949, 1.5593324090991665, 1707438722827411642
-0.3007271885871887, 0.28460264205932617, 1.5165840655081806, 1707438722837355561
-0.10263258218765259, 0.18593037128448486, 1.1785019941411414, 1707438722850023375
0.2891223430633545, 0.3086435794830322, 2.006783638790954, 1707438722857382393
0.10101258754730225, 0.12269312143325806, 1.4195536741956052, 1707438722867645616
-0.09539616107940674, 0.5290855765342712, 1.484818782450019, 1707438722877471754
-0.40808582305908203, 0.3989773988723755, 1.4753133084829944, 1707438722887365429
-0.38644522428512573, 0.06468987464904785, 1.3788288068463128, 1707438722897970496
0.17169839143753052, 0.49912017583847046, 1.5633973969019201, 1707438722907414321
-0.16136080026626587, -0.07237380743026733, 1.5999893797099014, 1707438722916688225
-0.03298354148864746, 0.3720298409461975, 1.1527779875380009, 1707438722929661490
-0.15024244785308838, 0.8129908442497253, 1.924836799449697, 1707438722937414818
-0.15686601400375366, 0.02613276243209839, 1.4684009011370691, 1707438722947481930
-0.056868910789489746, 0.4479207396507263, 1.480197096306475, 1707438722957501563
-0.1987980604171753, 0.22284364700317383, 1.4770813256422592, 1707438722967511092
0.10760295391082764, 0.046286582946777344, 1.4664470457215955, 1707438722977584997
0.03226691484451294, 0.4112507104873657, 1.4899293439913828, 1707438722987510773
-0.19980287551879883, 0.08030396699905396, 1.4609713229491639, 1707438722997537057
-0.25197380781173706, 0.15939205884933472, 1.2451686458598623, 1707438723009306451
-0.2563738226890564, 0.5301007628440857, 1.7823034745838566, 1707438723017512711
-0.2209070324897766, 0.15293067693710327, 1.4477879334148787, 1707438723027572636
-0.12245029211044312, 0.7538511157035828, 1.4603790390020408, 1707438723037591212
0.3221176266670227, 0.37878966331481934, 1.4687088448960566, 1707438723047551646
-0.020627856254577637, -0.10336703062057495, 1.4368076735288209, 1707438723057821909
-0.022933125495910645, 0.527397096157074, 1.519524947435304, 1707438723067563849
-0.2786669135093689, 0.16238486766815186, 1.4503187524820962, 1707438723077652860
-0.2927459478378296, -0.07655096054077148, 1.1915024539685208, 1707438723089873022
-0.08374196290969849, 0.4197256565093994, 1.8620733019683757, 1707438723097586172
0.026204049587249756, 0.05684041976928711, 1.5547026919279519, 1707438723106731152
0.39395904541015625, 0.25962120294570923, 1.298087244231662, 1707438723117653345
-0.2405458688735962, 0.12356555461883545, 1.5573688385434703, 1707438723126691542
-0.3371565341949463, 0.2001349925994873, 1.2514167515086, 1707438723137979729
0.21292394399642944, 1.2954505681991577, 1.4442229078962752, 1707438723147746117
-0.0047852396965026855, 0.2761406898498535, 1.296212123932629, 1707438723158624363
0.1810106635093689, -0.30679255723953247, 1.3139855633820854, 1707438723169535659
-0.09478431940078735, 0.19354629516601562, 1.6295292210654977, 1707438723178375216
-0.12232685089111328, 0.25151509046554565, 1.4300014536585794, 1707438723188431991
-0.032276451587677, 0.25388360023498535, 1.5409389035629526, 1707438723197722713
-0.5751593708992004, 0.054177284240722656, 1.3212678234586905, 1707438723208413612
-0.22109699249267578, -0.0032897591590881348, 1.4011715398418905, 1707438723218453232
0.42143917083740234, 0.6957262754440308, 1.3953825933415285, 1707438723228448003
0.4535820484161377, 0.4551028609275818, 1.3866048631092611, 1707438723238446464
-0.07837027311325073, 0.2488219141960144, 1.286330601429848, 1707438723249360557
-0.2229134440422058, 0.5405828356742859, 1.5671465701949328, 1707438723258366020
-0.3565542697906494, 0.1814761757850647, 1.3994521280507923, 1707438723268458725
-0.4502716660499573, 0.37719738483428955, 1.1631604449267494, 1707438723280553673
-0.2446780800819397, 0.3915615677833557, 1.7754356213299858, 1707438723288408243
-0.1675020456314087, -0.1275845766067505, 1.3941661970053656, 1707438723298442801
0.6715171337127686, 0.5296725630760193, 1.3871271876044178, 1707438723308553517
0.08956700563430786, 0.18844056129455566, 1.415581417767674, 1707438723318463766
-0.10665750503540039, -0.08637809753417969, 1.2831369022487646, 1707438723329379563
-0.015201449394226074, 0.30189698934555054, 1.5154508188399956, 1707438723338534828
-0.38619452714920044, 0.04902064800262451, 1.370985611441802, 1707438723348607849
0.10152697563171387, 0.29035335779190063, 1.1513495050280242, 1707438723360473931
0.20317590236663818, 0.32866400480270386, 1.8621869493646976, 1707438723367693614
0.21681135892868042, 0.6778770685195923, 1.3423169576340266, 1707438723377680506
-0.18149447441101074, 0.34129488468170166, 1.2279941877424956, 1707438723388577803
-0.06599980592727661, 0.04211181402206421, 1.3605214768827978, 1707438723398470121
-0.17425549030303955, 0.2629603147506714, 1.1490857130726346, 1707438723410288843
-0.3116026520729065, -0.10931861400604248, 1.6603617455995945, 1707438723418486213
0.3423715829849243, -0.05597442388534546, 1.3568015149275596, 1707438723428559415
0.37808793783187866, 0.3086585998535156, 1.1299503490713685, 1707438723440602339
-0.3053246736526489, 0.10736793279647827, 1.7101210776593208, 1707438723448506133
-0.39764243364334106, 0.6424458622932434, 1.3430343349428702, 1707438723458520010
-0.2938889265060425, 0.6952754855155945, 1.3231441801750181, 1707438723468577984
-0.12360775470733643, 0.3997232913970947, 1.3350369802366924, 1707438723478530595
0.20662927627563477, 0.6173049211502075, 1.2129902398783143, 1707438723489612298
0.1150323748588562, 0.09760916233062744, 1.5405852182645436, 1707438723498472565
-0.0661318302154541, 0.08722794055938721, 1.381334918697618, 1707438723508545722
-0.20328420400619507, 0.2465578317642212, 1.1582327846245954, 1707438723520607157
-0.28417444229125977, -0.21631598472595215, 1.7421636707360422, 1707438723528548718
0.13193130493164062, -0.0013769268989562988, 1.3673453553719654, 1707438723538567916
-0.14947229623794556, 0.3555532693862915, 1.335973714959675, 1707438723548574221
0.15956401824951172, 0.44099903106689453, 1.285944711555834, 1707438723558797330
0.36466699838638306, 0.811450719833374, 1.2081947697829323, 1707438723569549064
0.2649330496788025, 0.18729329109191895, 1.425172195243698, 1707438723578504711
-0.08684128522872925, 0.2911047339439392, 1.2330080754591188, 1707438723588924390
-0.29603755474090576, 0.5893252491950989, 1.1631352031770807, 1707438723599952577
-0.4345889687538147, -0.05157017707824707, 1.4868381112092826, 1707438723608591240
-0.3855382204055786, -0.11268806457519531, 1.2952109910711458, 1707438723618603023
-0.015237092971801758, 0.30231356620788574, 1.28798366743686, 1707438723628670444
0.005380034446716309, 0.18132179975509644, 1.3178748070107893, 1707438723638567810
-0.15797585248947144, 0.4017266035079956, 1.212268029586551, 1707438723649411673
-0.7153438925743103, 0.00018650293350219727, 1.4437816344428245, 1707438723658518093
-0.588939905166626, 0.6548446416854858, 1.4404010927537, 1707438723667693160
0.20408934354782104, 1.3098533153533936, 0.9994864348570798, 1707438723680960435
0.44929206371307373, 0.17825722694396973, 1.7680186651703915, 1707438723688615693
0.5643036365509033, -0.14359968900680542, 1.386626226939156, 1707438723698629382
-0.2269766926765442, 0.16382277011871338, 1.4001302627922867, 1707438723708572633
-0.18798530101776123, 0.1655455231666565, 1.3578510579307381, 1707438723718600840
-0.16383349895477295, 0.10505509376525879, 1.1768914102893338, 1707438723729947169
-0.2078987956047058, 0.16293352842330933, 1.4849740724619112, 1707438723738635920
0.3572841286659241, 0.16499274969100952, 1.2169874017370985, 1707438723748975219
0.6103552579879761, 0.5422583222389221, 0.9924414477203035, 1707438723761372887
0.08763265609741211, 0.29978829622268677, 1.6932304959988085, 1707438723768635085
-0.25052499771118164, 0.34266215562820435, 1.2485928312640413, 1707438723778627070
-0.2615809440612793, 0.26459699869155884, 1.376715795859027, 1707438723787682967
-0.3210849165916443, -0.052698373794555664, 1.154398330053493, 1707438723798660813
-0.34489959478378296, 0.19878607988357544, 1.1899572387120758, 1707438723809409741
-0.07236289978027344, 0.38626426458358765, 1.5657875471801779, 1707438723817713186
0.40081870555877686, 0.33990901708602905, 1.161309061702254, 1707438723829000430
0.1943565011024475, 0.6786372065544128, 1.0349551686744367, 1707438723841655208
-0.4500616192817688, 0.4525573253631592, 1.8566202750301153, 1707438723848799722
-0.4995589256286621, 0.3861269950866699, 1.3303120259078984, 1707438723858799081
-0.13531088829040527, 0.002565741539001465, 1.293852830810816, 1707438723869027114
0.41893357038497925, -0.08109414577484131, 1.3050239888469635, 1707438723879019026
0.39219582080841064, 0.2826235294342041, 1.2560394231705865, 1707438723889371331
0.19133460521697998, 0.2713121771812439, 1.3617411716870853, 1707438723898720644
0.029114127159118652, 0.45927178859710693, 1.238416059960519, 1707438723908932890
-0.31195348501205444, 0.2712957262992859, 0.9598430232695887, 1707438723921942269
0.10981708765029907, 0.30811792612075806, 1.8335274781878192, 1707438723928793155
0.07617127895355225, 0.5281784534454346, 1.2631814959124206, 1707438723938754671
-0.19294190406799316, 0.23349612951278687, 1.2664554508647092, 1707438723948833066
-0.019825339317321777, 0.26965415477752686, 1.2775307353838015, 1707438723958930081
-0.33880341053009033, 0.2902703285217285, 1.156200618320252, 1707438723969983081
-0.364626407623291, -0.0687723159790039, 1.457835880858992, 1707438723978773449
0.2852754592895508, 0.4592626094818115, 1.2498726658298172, 1707438723988885399
0.38672560453414917, 0.5532114505767822, 1.1580402631081141, 1707438723999673463
0.12256598472595215, 0.3088257908821106, 1.339662343179637, 1707438724008889949
-0.10235035419464111, 0.5346855521202087, 1.2482276158524328, 1707438724018835061
-0.2526019811630249, 0.2631223201751709, 1.24460588388649, 1707438724028862173
-0.13346785306930542, 0.25141441822052, 1.2778713159609005, 1707438724038758509
-0.14154458045959473, 0.2687147855758667, 1.1326232217895063, 1707438724049893885
-0.21281898021697998, -0.08792394399642944, 1.4087168880456822, 1707438724058796239
0.27005207538604736, 0.14071685075759888, 1.2227557722535662, 1707438724069051521
-0.025902628898620605, 0.41660642623901367, 0.9816887028426892, 1707438724081743648
-0.01649528741836548, 0.3748214840888977, 1.7727557913409404, 1707438724088840586
-0.03779292106628418, 0.6604821085929871, 1.2577450591967563, 1707438724098845166
-0.3177258372306824, -0.006945550441741943, 1.244972509121833, 1707438724108993603
-0.26308029890060425, 0.1422927975654602, 1.2927084643633202, 1707438724118859748
0.06992310285568237, 0.4956648349761963, 1.2086219909475469, 1707438724129394251
0.23583626747131348, 0.15340369939804077, 1.342430133555782, 1707438724138829116
-0.07082629203796387, 0.2599602937698364, 1.2511203187336957, 1707438724148863442
-0.05220592021942139, 0.4326980710029602, 1.0408867836195836, 1707438724160662198
-0.1463850736618042, 0.19127166271209717, 1.4743679820498774, 1707438724168897116
-0.005062699317932129, 0.2565734386444092, 1.2079164914243155, 1707438724178906276
-0.08512133359909058, -0.06386113166809082, 1.210815805619294, 1707438724188948599
0.033724188804626465, 0.5508010983467102, 1.2413292177152608, 1707438724198894229
0.34171080589294434, 0.9006938934326172, 1.1702379058487289, 1707438724209421393
0.21784698963165283, 0.07905250787734985, 1.2858604408211494, 1707438724218940240
-0.29755425453186035, -0.14186662435531616, 1.1930289552141697, 1707438724229178802
-0.4459361433982849, 0.29269635677337646, 0.9556895166280611, 1707438724241837970
-0.20697158575057983, 0.3478084206581116, 1.6869548237991931, 1707438724248946950
-0.1674923300743103, 0.101753830909729, 1.178861345457862, 1707438724258988959
-0.003972172737121582, 0.14538031816482544, 1.1636032628820878, 1707438724269099709
0.40702152252197266, 0.38635867834091187, 1.2069643171146331, 1707438724279007315
0.2325650453567505, 0.7445148825645447, 1.1606184492445102, 1707438724289438019
-0.18081295490264893, 0.2340797781944275, 1.2723826797934779, 1707438724299005855
-0.19956380128860474, 0.20750325918197632, 1.2117757025670681, 1707438724309036949
-0.05338644981384277, 0.3132227659225464, 1.029248986848279, 1707438724320672802
-0.0014412403106689453, 0.12270742654800415, 1.4075060856320571, 1707438724329059218
0.09236365556716919, 0.22685867547988892, 1.1744240977026097, 1707438724339111064
-0.02998495101928711, 0.24396079778671265, 1.1877446030191026, 1707438724349149532
-0.2297465205192566, 0.1172528862953186, 1.2049383918119398, 1707438724359196230
0.027500152587890625, 0.4845893383026123, 1.1378740784368575, 1707438724369893394
0.3129715919494629, 0.30147820711135864, 1.2965328884450649, 1707438724379342861
0.1686827540397644, 0.4360799193382263, 1.2366133293883133, 1707438724389170317
-0.5908940434455872, 0.11471474170684814, 0.9855778221249243, 1707438724401391366
-0.23532509803771973, 0.25786131620407104, 1.5215159838841297, 1707438724409278415
-0.22705483436584473, 0.36990898847579956, 1.2147356153029547, 1707438724419176581
0.2811921238899231, 0.2929992079734802, 1.2032972896108214, 1707438724429180316
0.6575290560722351, 0.5393973588943481, 1.206387478729625, 1707438724439148415
0.14954835176467896, 0.16744422912597656, 1.164894541369702, 1707438724449378762
-0.06537050008773804, 0.268521785736084, 1.2081381142854317, 1707438724459183467
-0.48853373527526855, 0.44945287704467773, 1.2985246721650237, 1707438724468219806
-0.44940292835235596, 0.13435864448547363, 0.8860452784962923, 1707438724481391711
0.010154962539672852, 0.16270697116851807, 1.7092187986412233, 1707438724488240145
0.18343102931976318, 0.22443300485610962, 1.179698195216596, 1707438724498267799
0.07176023721694946, 0.0005845427513122559, 1.0787759868475135, 1707438724509342184
0.05558079481124878, 0.5635676383972168, 1.2031264216083488, 1707438724519261842
-0.11194169521331787, 0.5731365084648132, 1.1093285553860877, 1707438724529834049
-0.05089837312698364, 0.473966121673584, 1.233639620363156, 1707438724539264309
-0.06086963415145874, 0.37311649322509766, 1.1490372488115927, 1707438724549316110
-0.22089892625808716, 0.15454477071762085, 0.9083594251086221, 1707438724562074331
0.13153481483459473, 0.2897641658782959, 1.6063172393040694, 1707438724569359300
0.031784653663635254, 0.19133144617080688, 1.1740987941115348, 1707438724579405741
0.24836993217468262, -0.09408789873123169, 1.1823375338532898, 1707438724589405134
0.31850433349609375, 0.03806900978088379, 1.1856763875976508, 1707438724599345095
-0.39774155616760254, 0.25828081369400024, 1.1461547375593726, 1707438724609480551
-0.3113816976547241, 0.3836740255355835, 1.166402803594894, 1707438724619360393
-0.007286250591278076, 0.6998220682144165, 1.1448097029062827, 1707438724629409001
0.07977449893951416, 0.13354820013046265, 0.9504453907547283, 1707438724641723636
0.07070893049240112, 0.2533355951309204, 1.5451454404006824, 1707438724649446560
0.12529271841049194, 0.4764951467514038, 1.1978194002249256, 1707438724659457366
-0.0633552074432373, 0.031144797801971436, 1.1798734748927384, 1707438724669532370
0.033767879009246826, 0.0002288818359375, 1.1731301326872787, 1707438724679464869
0.21853339672088623, 0.37780046463012695, 1.0928437880474628, 1707438724689887929
0.09487903118133545, 0.41893112659454346, 1.181607747405679, 1707438724699474154
0.16481709480285645, 0.44261592626571655, 1.130307961731398, 1707438724709488348
-0.5864700078964233, -0.1816146969795227, 0.956013386919547, 1707438724721436948
-0.413913369178772, 0.5344971418380737, 1.4183034204859726, 1707438724729550150
0.016339004039764404, 1.0140842199325562, 1.1475299134868313, 1707438724739505659
0.29846274852752686, -0.026081204414367676, 1.1291182272562197, 1707438724749615529
0.42312437295913696, -0.27390360832214355, 1.1442716204597094, 1707438724759595420
-0.4055841565132141, 0.21060556173324585, 1.1368898028052297, 1707438724769578914
-0.09754723310470581, 0.44354575872421265, 1.1344330549193133, 1707438724779541167
-0.47875016927719116, 0.34722739458084106, 1.1063570947995742, 1707438724789612227
-0.21314948797225952, 0.1285274624824524, 0.9391384124389618, 1707438724801382096
0.20151132345199585, 0.2913876175880432, 1.3374840069238871, 1707438724809626207
0.48988252878189087, 0.6733919382095337, 1.068209832784373, 1707438724819871879
0.07867300510406494, 0.18320471048355103, 1.1141070616855955, 1707438724829804890
-0.32317155599594116, 0.14437085390090942, 1.139670935193698, 1707438724839618300
-0.18918848037719727, 0.33051806688308716, 1.2252327356764272, 1707438724848750529
-0.47478193044662476, 0.0593876838684082, 1.030957902946604, 1707438724859658413
0.14481300115585327, 0.23777371644973755, 1.0983578031779744, 1707438724869862881
0.250328004360199, 0.1008118987083435, 0.9344805165642391, 1707438724881822250
0.22533339262008667, 0.5249388217926025, 1.3747204140264266, 1707438724889923397
-0.644774317741394, 0.2773968577384949, 1.1022048854964712, 1707438724899915904
-0.18333077430725098, 0.28326988220214844, 1.1141163755369266, 1707438724909824855
-0.06405985355377197, 0.3930886387825012, 1.1174016126931947, 1707438724919797025
0.2482086420059204, 0.10870498418807983, 1.1233508071749925, 1707438724929851051
0.3450612425804138, 0.1533685326576233, 1.151324618848745, 1707438724939789885
0.21804994344711304, 0.2085685133934021, 1.1289238234554453, 1707438724949834965
-0.07677191495895386, 0.2257869839668274, 0.9564408432403023, 1707438724961506665
-0.21346604824066162, 0.6277086138725281, 1.3144334736087657, 1707438724969860121
-0.21366119384765625, 0.4779256582260132, 1.0833754558920352, 1707438724979889831
-0.06822347640991211, 0.3337740898132324, 1.0917580680647696, 1707438724989914804
0.03623908758163452, 0.2582050561904907, 1.1093108564497047, 1707438724999864956
-0.17519646883010864, -0.056114792823791504, 1.1052434671735119, 1707438725009882186
0.4052809476852417, 0.12219947576522827, 1.1043076601527344, 1707438725019903381
-0.22852188348770142, 0.14555108547210693, 1.0926574842811958, 1707438725029909717
-0.34905439615249634, 0.04461812973022461, 0.945816577520607, 1707438725041418109
0.038541197776794434, 0.7470094561576843, 1.2760298820313476, 1707438725049958056
-0.020543575286865234, 0.5785819888114929, 1.0914642468840192, 1707438725059914729
0.22957515716552734, 0.09070301055908203, 1.0920540619270027, 1707438725079941896
0.06351137161254883, -0.0709761381149292, 1.0598718578754647, 1707438725090135244
-0.2519875764846802, 0.32320982217788696, 1.0936115844757721, 1707438725099928721
-0.3439726233482361, 0.452039897441864, 1.0524095738559383, 1707438725109981624
-0.22004860639572144, 0.19962531328201294, 0.8721620659491802, 1707438725122064423
-0.0938500165939331, 0.3043699264526367, 1.3402951300259425, 1707438725129976168
-0.023752868175506592, 0.3153408169746399, 1.0523154187649184, 1707438725140168480
0.06366848945617676, 0.5796694755554199, 1.0981002075922295, 1707438725160054046
-0.44948679208755493, -0.11131548881530762, 1.1083510214368295, 1707438725170040118
-0.17242056131362915, 0.0006609559059143066, 1.1295286058396266, 1707438725180053918
0.23119056224822998, 0.45607316493988037, 1.1374829753420048, 1707438725190067500
0.16440021991729736, 0.16616976261138916, 0.9253829964002442, 1707438725202354775
0.4857838749885559, 0.2709163427352905, 1.4438041193933993, 1707438725210079737
-0.07030057907104492, 0.3438183069229126, 1.077036039040483, 1707438725220135583
0.01701563596725464, 0.3163030743598938, 0.790992081447912, 1707438725233640569
-0.3019084334373474, 0.62127685546875, 1.5838138946669997, 1707438725240328753
-0.27798640727996826, 0.08987534046173096, 1.0443995947354352, 1707438725250575235
0.2930094599723816, 0.6678028702735901, 1.1425769414447626, 1707438725260111662
0.5431248545646667, 0.7342140674591064, 1.0836798977975386, 1707438725270158655
0.25980252027511597, -0.2536150813102722, 0.9310154865526399, 1707438725281874184
-0.42228251695632935, -0.2034410834312439, 1.3188222622501848, 1707438725290124257
-0.5875020027160645, 0.2883443236351013, 1.0752710122000961, 1707438725300210742
-0.8038415312767029, 0.19209522008895874, 0.8565076981191299, 1707438725312887941
-0.21380746364593506, 0.10209345817565918, 1.480268280489823, 1707438725320173314
0.2664664387702942, 0.18153589963912964, 1.0529047526079054, 1707438725330465125
1.1046361923217773, 0.44943922758102417, 1.0903666650543549, 1707438725340425687
0.44117969274520874, 0.7373720407485962, 1.0901373649488395, 1707438725350214301
-0.5278546214103699, 0.03719210624694824, 1.0289203205820832, 1707438725360471577
-0.32305002212524414, 0.3185591697692871, 1.0600532648611078, 1707438725370322845
-0.3350626826286316, 0.3752453327178955, 1.0392305823296013, 1707438725380326872
0.04863429069519043, 0.08959734439849854, 1.04498679049959, 1707438725400343739
0.22507792711257935, 0.2739025950431824, 1.0392024518179155, 1707438725410305630
0.10973447561264038, 0.6486611366271973, 1.0139193418411783, 1707438725420379552
-0.19899094104766846, 0.22047412395477295, 1.0157385903923062, 1707438725430344876
-0.07589232921600342, 0.1860417127609253, 0.8742804075060648, 1707438725442131553
0.2617456316947937, 0.1805284023284912, 1.2704413250711644, 1707438725450323215
-0.07483172416687012, -0.04310661554336548, 1.036113794627797, 1707438725460375596
-0.6223174333572388, 0.4565948247909546, 0.9202058946003807, 1707438725471681643
-0.6223174333572388, 0.4565948247909546, 1.176506569553683, 1707438725480402696
-0.23844170570373535, 0.23305344581604004, 1.0036045166970753, 1707438725490599979
0.1626955270767212, 0.41141563653945923, 1.0506804880938638, 1707438725500448903
0.09329259395599365, 0.06648313999176025, 1.0572301595362743, 1707438725510412574
0.543969452381134, 0.3592718839645386, 0.9308096414952394, 1707438725522022034
-0.24360740184783936, 0.5684390068054199, 1.2929509056973547, 1707438725530434123
-0.47057199478149414, 0.2193434238433838, 1.055287950713236, 1707438725540662901
-0.16252005100250244, 0.23598182201385498, 1.0795161252195227, 1707438725560466207
0.246493399143219, -0.15331780910491943, 1.0547308184108077, 1707438725570511548
0.8723874092102051, 0.47592949867248535, 1.017737173179658, 1707438725580869856
0.42651617527008057, 0.3202534317970276, 1.0704302720097019, 1707438725590510339
-0.13547641038894653, 0.2394968867301941, 0.8629046811591602, 1707438725602331544
-0.3964523673057556, 0.25590407848358154, 1.2299958385025003, 1707438725610546507
-0.4445335268974304, 0.011452853679656982, 1.1074529734617398, 1707438725619759970
0.18090325593948364, 0.1743118166923523, 0.7650344606648093, 1707438725633488758
0.25139665603637695, 0.2896413803100586, 1.497623324924407, 1707438725640565797
0.2520867586135864, 0.1373690962791443, 1.054666347415663, 1707438725650594220
0.26254844665527344, 0.4657399654388428, 1.0041221440227448, 1707438725660944921
-0.8708825707435608, 0.32563477754592896, 1.046389298264383, 1707438725670607682
-0.3006408214569092, 0.367170512676239, 0.848840755971481, 1707438725682466314
0.37339216470718384, 0.4388578534126282, 1.232150163716126, 1707438725690609822
0.5716156959533691, -0.13997888565063477, 0.9692313922664975, 1707438725701020864
0.45631134510040283, 0.17255651950836182, 0.7936332714030596, 1707438725713881879
-0.3212103247642517, 0.5523020625114441, 1.491146234588731, 1707438725720643248
-0.8616606593132019, 0.13529175519943237, 1.1168513301403429, 1707438725729690917
-0.6005741953849792, 0.07272523641586304, 0.9242743705022295, 1707438725740736178
0.3184756636619568, 0.16645067930221558, 1.150889745020734, 1707438725749679238
0.9489790201187134, 0.10994833707809448, 0.8602533698681134, 1707438725761764617
0.6486705541610718, 0.4566919207572937, 1.135912107099618, 1707438725770730940
-0.7796765565872192, 0.11472654342651367, 0.9679545368628194, 1707438725780977126
-0.5867928266525269, 0.9372754693031311, 0.737441561518783, 1707438725794260297
-0.37479692697525024, 0.8801693916320801, 1.4646248887053235, 1707438725800936487
0.10844075679779053, -0.2775384187698364, 1.0254213379192287, 1707438725810769710
1.127554178237915, -0.1388009786605835, 1.026659484563973, 1707438725820860586
0.36580508947372437, 0.23930692672729492, 1.039032032164402, 1707438725830797496
-0.08456701040267944, 0.33305472135543823, 0.9163365553699957, 1707438725841888896
-0.5118932723999023, 0.29891908168792725, 1.1160413371194844, 1707438725850798610
-0.7475839853286743, 0.07705104351043701, 0.9826780659858021, 1707438725860849054
-0.10466247797012329, 0.10988742113113403, 0.7447453535323008, 1707438725873956409
0.5054629445075989, 0.38453125953674316, 1.3660187333286913, 1707438725880897538
-0.13304215669631958, 0.2690775394439697, 0.91662368701277, 1707438725891197478
-0.4711570143699646, 0.3195469379425049, 0.9666225085111252, 1707438725901032896
-0.5932751297950745, -0.10844403505325317, 0.9609994913227875, 1707438725911063573
0.03460663557052612, 0.12446916103363037, 0.9420265478052879, 1707438725921526361
0.4481607675552368, 0.3702349066734314, 1.0582259637481979, 1707438725930927404
0.8319180607795715, 0.48981308937072754, 0.9955390360762452, 1707438725940910015
0.057588934898376465, 0.664588451385498, 0.7494688507282538, 1707438725953916041
-0.6039745807647705, 0.143715500831604, 1.347928357154782, 1707438725960967602
-0.38543474674224854, 0.1321122646331787, 0.9535133058216411, 1707438725970948919
-0.09410256147384644, 0.21240299940109253, 0.9286752593358443, 1707438725981273161
0.26904499530792236, -0.051628053188323975, 1.0050732360473675, 1707438725990994061
-0.19763505458831787, 0.4333159923553467, 1.0081617984967248, 1707438726011017638
-0.2380419373512268, 0.2571810483932495, 1.0165936090426775, 1707438726021010454
-0.0955548882484436, 0.2673194408416748, 0.9927067034637469, 1707438726041200406
0.6246346831321716, 0.21455729007720947, 1.0166529532978539, 1707438726051052572
0.5799075365066528, 0.43207937479019165, 0.9724410393366246, 1707438726061269621
-0.156455397605896, 0.0912175178527832, 1.001425213464098, 1707438726071046559
0.12429815530776978, 0.28298890590667725, 0.8630125668309491, 1707438726082278627
-0.5552343130111694, 0.09415137767791748, 1.0554397418460548, 1707438726091387878
-0.18829810619354248, -0.22816532850265503, 1.0021090213199402, 1707438726101117168
0.3553570508956909, 0.42928850650787354, 0.780229697221741, 1707438726113722526
0.33471494913101196, 0.3882644772529602, 1.2936050343720762, 1707438726121258257
0.053566575050354004, 0.42411792278289795, 0.9537469975103413, 1707438726131495884
-0.3688209056854248, 0.37529242038726807, 0.9912326203555056, 1707438726141345013
-0.40356379747390747, 0.017840981483459473, 1.0008358789125953, 1707438726151154518
0.05998295545578003, 0.33358895778656006, 0.926099539764051, 1707438726161827835
0.5904738903045654, 0.30910176038742065, 0.9993623053962686, 1707438726171556923
0.20941412448883057, -0.1207243800163269, 0.9961374628617504, 1707438726181203381
0.10484474897384644, 0.35129469633102417, 0.8351542987469571, 1707438726192688120
-0.5615194439888, 0.4367220997810364, 1.1162039374157127, 1707438726201238916
-0.268513560295105, 0.47062617540359497, 0.9552910076261629, 1707438726211230403
-0.16939693689346313, 0.39301931858062744, 0.9177096609027322, 1707438726221638322
0.4082590937614441, -0.18466639518737793, 1.1134062914487215, 1707438726230293246
0.4819985032081604, 0.13552814722061157, 0.8627231235023237, 1707438726241525154
-0.36735332012176514, 0.46443164348602295, 0.9553044671699704, 1707438726251514645
-0.28862887620925903, 0.14155101776123047, 1.0769750717156188, 1707438726260322088
-0.5656569004058838, 0.1762790083885193, 0.6932614896338981, 1707438726273974027
0.017713308334350586, 0.2898029088973999, 1.2828101651240358, 1707438726281318871
0.2581642270088196, 0.0962185263633728, 0.9440403712618559, 1707438726291317604
0.45828521251678467, 0.22334659099578857, 0.937633969919294, 1707438726301382813
-0.11989808082580566, 0.8518685102462769, 0.9350441256612102, 1707438726321796303
0.2208613157272339, 1.0244303941726685, 0.9849694407803168, 1707438726331403756
0.0974736213684082, -0.19006288051605225, 0.9509569397438987, 1707438726341428972
0.15590035915374756, -0.1764742136001587, 0.7720595289015765, 1707438726353872703
-0.5703434348106384, 0.18826168775558472, 1.2782700449904738, 1707438726361423077
-0.24889856576919556, 0.13784176111221313, 0.9317705061667467, 1707438726371825128
-0.13519710302352905, -0.06964647769927979, 0.9822200955715455, 1707438726381602936
0.2168341875076294, 0.10049843788146973, 0.9598242822981362, 1707438726391527397
0.7791335582733154, 0.7054104804992676, 0.8919710286033783, 1707438726402061413
-0.1526433825492859, 0.2790212035179138, 0.9587245545821939, 1707438726411665204
-0.5781419277191162, 0.19165092706680298, 0.9380809763155131, 1707438726421506072
-0.10312438011169434, 0.10057306289672852, 0.7567923547319145, 1707438726433776617
-0.07994455099105835, -0.06584858894348145, 1.2061550102444794, 1707438726441486946
0.1072496771812439, 0.3374937176704407, 0.9192624155901695, 1707438726451569268
-0.39216822385787964, 0.2310774326324463, 0.9140536089546123, 1707438726461574871
0.04437440633773804, 0.21228176355361938, 0.9193685341447083, 1707438726471573583
0.08738243579864502, 0.5213910341262817, 0.9033728265066094, 1707438726481920820
0.09938210248947144, 0.2825508117675781, 0.9809724897730485, 1707438726491564255
0.10315477848052979, 0.3011128902435303, 0.9501315841965567, 1707438726501598014
-0.06860500574111938, 0.3981221914291382, 0.774850450339502, 1707438726513769664
-0.3726261854171753, 0.15350544452667236, 1.200083517483169, 1707438726521584738
-0.4622107744216919, 0.13155478239059448, 0.9383418632607604, 1707438726531671506
0.2021845579147339, 0.193853497505188, 1.0521777090933018, 1707438726540692868
0.3933897018432617, 0.20132499933242798, 0.8521752133745626, 1707438726551832481
0.4793754816055298, 0.5271102786064148, 1.0501118144120065, 1707438726560722525
-0.2937202453613281, 0.2879997491836548, 0.8278770414585546, 1707438726571745602
-0.0655028223991394, 0.265119731426239, 0.915146283085585, 1707438726581740846
-0.1885107159614563, 0.310785710811615, 0.8442326323873253, 1707438726592692625
-0.1000063419342041, -0.054028451442718506, 1.1667754752740827, 1707438726600685960
0.8596734404563904, 0.23301374912261963, 0.8268044592678258, 1707438726611991994
-0.11620229482650757, 0.3327011466026306, 0.9440583195157918, 1707438726621775172
-0.4684554934501648, -0.00947481393814087, 0.9179876027855859, 1707438726631776976
-0.2787174582481384, 0.31905609369277954, 0.9161717366861382, 1707438726641794748
0.39366722106933594, 0.14267152547836304, 0.9231969843227621, 1707438726651743989
0.7871624231338501, 0.24498456716537476, 0.8998761874332579, 1707438726662015125
0.3062285780906677, 0.49919402599334717, 0.7716934507798452, 1707438726673899200
-0.314212441444397, 0.3150029182434082, 1.1479872062699261, 1707438726681892086
-0.47309672832489014, 0.21223652362823486, 0.9194919970135349, 1707438726691981761
-0.3112722635269165, 0.08199262619018555, 0.9388135199607013, 1707438726701836745
0.1428840160369873, -0.0016518831253051758, 0.9091741471951393, 1707438726712007846
0.5428237318992615, 0.5752034783363342, 0.9317085693528383, 1707438726721880965
-0.39078015089035034, 0.39677613973617554, 0.9188272127130284, 1707438726731848772
-0.4683256149291992, 0.17250597476959229, 0.9227501776779258, 1707438726741872194
-0.17986351251602173, 0.18632429838180542, 0.7971095350093923, 1707438726753504060
0.13113194704055786, -0.012229204177856445, 1.111359659645715, 1707438726761861217
0.2096598744392395, 0.3787030577659607, 0.9017491170129089, 1707438726772149223
0.12234264612197876, 0.5513911247253418, 0.93895880262576, 1707438726781949893
-0.3268333673477173, -0.07070314884185791, 0.9144409516052484, 1707438726792048365
-0.31799179315567017, 0.11792069673538208, 0.9315050427758161, 1707438726801939971
0.13586682081222534, 0.25087183713912964, 0.9125028136230603, 1707438726811922025
0.5981909036636353, 0.1568853259086609, 0.8936492482194547, 1707438726821963179
0.2870441675186157, 0.35831427574157715, 0.7582286822649776, 1707438726833493553
-0.7729983329772949, -0.03185617923736572, 1.0265585912129238, 1707438726841949062
-0.13779067993164062, 0.5690285563468933, 0.8700046305435511, 1707438726851982045
0.3153356909751892, 0.6067770719528198, 0.8742307152678515, 1707438726862021470
0.6476900577545166, -0.14266157150268555, 0.8946339270584472, 1707438726872057837
0.2587798237800598, 0.0026699304580688477, 0.9044136893274475, 1707438726882074313
-0.4983406066894531, 0.3747437000274658, 0.8990614163868307, 1707438726892102155
-0.30001890659332275, 0.18821638822555542, 0.8858308116910617, 1707438726902257743
0.2839112877845764, 0.21564418077468872, 0.7902392589043525, 1707438726913467638
0.568764328956604, 0.6188102960586548, 1.0107746044566135, 1707438726922161233
0.11261522769927979, 0.8101945519447327, 0.8731684005237232, 1707438726932161270
-0.5015918612480164, 0.02399468421936035, 0.8656900278088953, 1707438726942177516
-0.23840034008026123, -0.05834341049194336, 0.880036184085028, 1707438726952171661
0.0431133508682251, 0.08044016361236572, 0.8892398292750399, 1707438726962159444
0.26617854833602905, 0.1047782301902771, 0.9011139113235063, 1707438726972112458
0.0577847957611084, 0.4069596529006958, 0.8808774681498888, 1707438726982371939
-0.3549869656562805, 0.01426154375076294, 0.7562253651241735, 1707438726994258299
-0.011285722255706787, 0.17889875173568726, 1.1419335270273692, 1707438727002172639
0.12226289510726929, 0.6561194658279419, 0.8834800856125379, 1707438727012434544
0.3796093463897705, 0.30803102254867554, 0.7157096038989705, 1707438727024973141
0.12367933988571167, 0.2537650465965271, 1.201254133495055, 1707438727032371808
-0.21920615434646606, 0.248665452003479, 0.8930883632000018, 1707438727042233094
-0.6049407720565796, -0.13504600524902344, 0.8876990982812862, 1707438727052219868
-0.048042118549346924, 0.142453134059906, 0.8931185823740446, 1707438727062266789
0.2329413890838623, 0.32130181789398193, 0.7692712435218249, 1707438727073912283
0.3723441958427429, 0.36187756061553955, 1.070563515386414, 1707438727082234414
0.1654902696609497, 0.5505622029304504, 0.8712530124555873, 1707438727092305655
0.04385483264923096, 0.10488218069076538, 0.9183794170635642, 1707438727111328063
-0.09075498580932617, 0.4451645016670227, 0.7961236910152777, 1707438727122337668
0.27034640312194824, 0.1584690809249878, 0.9661573748116075, 1707438727131320551
0.10834085941314697, 0.31960320472717285, 0.781332527082327, 1707438727142319238
-0.41680020093917847, -0.04085659980773926, 0.7646407102346992, 1707438727153499912
-0.4348074197769165, -0.060545265674591064, 1.1117289147013598, 1707438727161335570
0.18189698457717896, 0.6826478242874146, 0.7866572785791975, 1707438727172472727
0.39263999462127686, 0.20304733514785767, 0.7008094138430486, 1707438727184911953
0.3074410557746887, 0.20195698738098145, 1.1703365850381058, 1707438727192419138
-0.236380934715271, 0.32405227422714233, 0.880664525244857, 1707438727202412967
-0.2838858366012573, 0.1929050087928772, 0.8833377458951475, 1707438727212459428
0.07739531993865967, 0.4934701919555664, 0.8900490745389581, 1707438727222436303
-0.1745280623435974, 0.019882500171661377, 0.7896942817959467, 1707438727233508358
0.16201746463775635, -0.17213886976242065, 0.9748403861848929, 1707438727242469129
0.20567172765731812, 0.4712650775909424, 0.8669784646684844, 1707438727252511037
0.11454546451568604, 0.3829406499862671, 0.6832335029691666, 1707438727265293505
0.3637992739677429, 0.44806182384490967, 1.2066984967727246, 1707438727272562562
0.5391082167625427, 0.2692265510559082, 0.8605455470713279, 1707438727282603820
-0.23008519411087036, -0.22857707738876343, 0.8677278661414323, 1707438727292543001
-0.32439035177230835, 0.391923725605011, 0.8600196535104261, 1707438727302584572
-0.306249737739563, 0.3759297728538513, 0.7598544688484424, 1707438727313984272
-0.10186994075775146, -0.17092406749725342, 1.0206460638390362, 1707438727322523912
0.282997727394104, 0.26649951934814453, 0.8335232444860857, 1707438727332807393
-0.12847095727920532, 0.18712878227233887, 0.7016613383385005, 1707438727344902011
0.1495022177696228, 0.29746317863464355, 1.253030240037514, 1707438727351695704
-0.3264783024787903, 0.3568568825721741, 0.7638745720988066, 1707438727362749998
-0.048754870891571045, 0.05975431203842163, 0.8430639829849934, 1707438727372749962
0.29520732164382935, 1.0727546215057373, 0.9310563035624929, 1707438727381717933
0.16751408576965332, 0.4118579626083374, 0.7038042145014279, 1707438727393557125
-0.03161787986755371, -0.49511808156967163, 0.930885003775361, 1707438727402749653
-0.09117090702056885, -0.032414138317108154, 0.7980236064431543, 1707438727413597004
0.15334677696228027, 0.03472411632537842, 0.7441192715334684, 1707438727425229953
-0.2366003394126892, 0.5699275732040405, 1.1180927313568998, 1707438727432811058
-0.43631893396377563, 0.39169496297836304, 0.8239718786868534, 1707438727442732403
0.5186801552772522, 0.5333238840103149, 0.8072970460312415, 1707438727452754878
0.3040913939476013, 0.3201470375061035, 0.8017808762644594, 1707438727462740518
0.0017699003219604492, 0.19706207513809204, 0.7382366255095948, 1707438727473626291
-0.36124950647354126, 0.6089298725128174, 0.9036003694639905, 1707438727482738450
-0.3968890309333801, -0.020488083362579346, 0.81317769810948, 1707438727492977357
0.5608170032501221, 0.10409045219421387, 0.854987243101705, 1707438727512826575
0.49704062938690186, 0.367062509059906, 0.8332028240719948, 1707438727522904741
0.09497743844985962, 0.7324036955833435, 0.8397518240149972, 1707438727532802065
-0.1881595253944397, 0.2645776867866516, 0.8261090861349751, 1707438727542834540
-0.3308808207511902, -0.25471049547195435, 0.761523416318695, 1707438727553915913
0.2765604257583618, 0.3584258556365967, 0.9626832483491772, 1707438727562825592
-0.038576483726501465, 0.401031494140625, 0.8432581988460955, 1707438727572989723
-0.32461482286453247, 0.12323004007339478, 0.6579619811927312, 1707438727586056427
-0.41646093130111694, 0.2630823850631714, 1.140752992644786, 1707438727593551800
-0.06260180473327637, -0.0042362213134765625, 0.8452053610836487, 1707438727603563528
0.5956564545631409, 0.4502156376838684, 0.8334279659661276, 1707438727613633801
0.43749427795410156, 0.6833240389823914, 0.8276591431736974, 1707438727623521602
-0.0076770782470703125, 0.05654275417327881, 0.8077786705601406, 1707438727633583503
-0.2717130780220032, -0.02538830041885376, 0.8323234011359221, 1707438727643515398
-0.3780478239059448, -0.12282180786132812, 0.8295474426643749, 1707438727653589765
0.09673815965652466, -0.0560489296913147, 0.6777216795772182, 1707438727666014442
0.3622206449508667, 0.6884646415710449, 1.0957616370136471, 1707438727673618323
-0.20142054557800293, 0.08686321973800659, 0.8272136680766077, 1707438727683591845
-0.4066653251647949, 0.029383599758148193, 0.83411396647497, 1707438727693552895
-0.0840296745300293, 0.4578392505645752, 0.8189314970483078, 1707438727703614977
-0.24283117055892944, 0.43706005811691284, 0.8247681803249616, 1707438727713568023
0.05788618326187134, 0.880292534828186, 0.8169660209346695, 1707438727723605183
0.21592587232589722, 0.24225473403930664, 0.8248372970078394, 1707438727733603714
0.07997351884841919, -0.3364279270172119, 0.6834821384048263, 1707438727746083640
0.302359938621521, 0.1509445309638977, 1.1430687325602193, 1707438727753614915
-0.06036287546157837, 0.16423636674880981, 0.8424659398377423, 1707438727763655332
-0.04684901237487793, 0.18470096588134766, 0.9179964840530972, 1707438727772699988
-0.49210309982299805, 0.20692092180252075, 0.7469010347158277, 1707438727783639715
-0.3668462038040161, -0.23832958936691284, 0.9083568389782009, 1707438727792714152
0.6165900230407715, 0.34398049116134644, 0.8256036134534448, 1707438727802710763
0.5859562158584595, 0.5195226669311523, 0.7220803660084235, 1707438727813982251
0.035563528537750244, 0.21156412363052368, 0.7070528841899135, 1707438727825639077
-0.5944607853889465, 0.313262403011322, 1.1791360246177016, 1707438727832698134
-0.14302396774291992, -0.139390230178833, 0.7719733212701823, 1707438727843663426
0.31758636236190796, 0.13423216342926025, 0.8388027279457916, 1707438727853737470
0.5439909100532532, 0.8606075644493103, 0.8218614406299033, 1707438727863667643
-0.01580965518951416, 0.2225182056427002, 0.7976444162462573, 1707438727873798974
-0.22614401578903198, -0.031069040298461914, 0.8132851162698754, 1707438727883720069
-0.46948593854904175, -0.29506921768188477, 0.7850616831492264, 1707438727893940008
-0.27716636657714844, 0.2502472996711731, 0.7422598906623402, 1707438727904671937
0.32140034437179565, 1.535430669784546, 0.8696850357212931, 1707438727913736482
0.1857762336730957, -0.5061572790145874, 0.7971063230698697, 1707438727923837083
-0.3687732219696045, -0.14957177639007568, 0.8363569719331457, 1707438727933794821
-0.25237900018692017, 0.18814319372177124, 0.8459394082370321, 1707438727943716649
-0.24159455299377441, 0.3394315242767334, 0.8346358837588372, 1707438727953740273
-0.3819693922996521, 0.19181478023529053, 0.8250043497553526, 1707438727963668870
0.02534186840057373, -0.3716300129890442, 0.7986898360097321, 1707438727973773901
1.0156279802322388, 0.3572770953178406, 0.6431788082347017, 1707438727986341100
0.2176768183708191, 0.5580862760543823, 1.234833834213759, 1707438727992695068
-0.5160134434700012, 0.3828181028366089, 0.7734030004046741, 1707438728002680973
-0.3297128677368164, 0.4506034851074219, 0.7720690336964389, 1707438728012694857
-0.2734141945838928, -0.3141826391220093, 0.7004068803062748, 1707438728023791628
0.06494241952896118, 0.3775114417076111, 0.7938766211258915, 1707438728033811077
0.18016517162322998, 0.5868476629257202, 0.7913193168324724, 1707438728043885511
0.5169709324836731, 0.09366101026535034, 0.7816445727592998, 1707438728054040323
0.06909400224685669, 0.3090345859527588, 0.6671172398454513, 1707438728065980367
-0.15101861953735352, -0.05058467388153076, 1.0033820327151666, 1707438728073842231
0.17712265253067017, -0.03516167402267456, 0.8043063605512332, 1707438728083735207
0.4362785816192627, 0.5040058493614197, 0.73922311562681, 1707438728094407452
-0.3196030855178833, 0.009241580963134766, 0.8251821789922344, 1707438728103784850
-0.4299463629722595, -0.1256321668624878, 0.7451266738677845, 1707438728114350327
-0.013453960418701172, 0.2986034154891968, 0.8544437682925476, 1707438728123736346
0.21327394247055054, 0.23773181438446045, 0.7948014021807234, 1707438728133968568
0.5851969718933105, 0.8099132776260376, 0.697803251775701, 1707438728145630737
-0.06820261478424072, 0.3225364685058594, 0.980213480760561, 1707438728153843425
-0.07795429229736328, -0.05362957715988159, 0.8048994987284065, 1707438728163877316
-0.12025636434555054, 0.47369784116744995, 0.8209112539651724, 1707438728173771899
-0.4450310468673706, 0.10638487339019775, 0.8015619239362316, 1707438728183786301
-0.103271484375, 0.17452400922775269, 0.7967877901918967, 1707438728193885347
0.03243535757064819, 0.27049463987350464, 0.7941465964524514, 1707438728203931481
-0.09526932239532471, -0.3197462558746338, 0.7974816400150792, 1707438728213969369
0.3618013262748718, 0.5842666625976562, 0.6718066187704522, 1707438728225976964
0.13643306493759155, 0.5582011938095093, 1.0145315295278285, 1707438728233837085
-0.10972034931182861, 0.1348772644996643, 0.7928202903478403, 1707438728243918805
-0.18130528926849365, 0.4667899012565613, 0.7966556340581371, 1707438728253925138
-0.23108047246932983, -0.19523966312408447, 0.8002375702627045, 1707438728263886577
0.32272136211395264, 0.1250970959663391, 0.799994160908162, 1707438728273941706
0.2770453691482544, 0.43788641691207886, 0.7847635584061955, 1707438728283862401
-0.1286599040031433, -0.12248659133911133, 0.7580047144039376, 1707438728293941728
0.012649595737457275, 0.09275490045547485, 0.6304277509371077, 1707438728306092829
-0.051456987857818604, 0.36771637201309204, 0.977690406291415, 1707438728313907507
-0.1357942819595337, 0.6245631575584412, 0.7779861569974316, 1707438728323916692
0.11408334970474243, 0.932337760925293, 0.7798373573502027, 1707438728333939623
-0.23874837160110474, -0.35500574111938477, 0.803536860785778, 1707438728343899322
-0.057705461978912354, -0.4659292697906494, 0.8196950329500053, 1707438728354007544
0.11778658628463745, 0.045580267906188965, 0.8320383959371468, 1707438728363933629
0.08152621984481812, 0.1777305006980896, 0.8040740473738337, 1707438728374153009
0.0616266131401062, 0.6268803477287292, 0.6914433886037591, 1707438728385756583
-0.2505912184715271, 0.5014379024505615, 0.9519955774807951, 1707438728393945918
-0.22372043132781982, -0.14171016216278076, 0.775008764596605, 1707438728404023639
0.0231478214263916, 0.542320728302002, 0.7598239974544522, 1707438728414053898
0.08535146713256836, 0.7373365759849548, 0.7368485944022328, 1707438728424231455
0.6436843276023865, 0.546809732913971, 0.7688272315531879, 1707438728434147416
0.40749073028564453, -0.5587850213050842, 0.7829387163091026, 1707438728444015328
0.12218362092971802, -0.20753347873687744, 0.7854991951273561, 1707438728454054008
-0.34267789125442505, 0.4511587619781494, 0.7431341116907644, 1707438728464713099
-0.34355759620666504, 0.14937818050384521, 0.8334913657018318, 1707438728474065902
-0.30234986543655396, -0.07386660575866699, 0.7865212785055864, 1707438728483967525
0.02120792865753174, 0.09788483381271362, 0.7652800824969725, 1707438728494029270
0.3103187680244446, 0.6631472110748291, 0.7724121541798062, 1707438728503997053
0.2316218614578247, 1.028664231300354, 0.7561048956957579, 1707438728514034342
-0.42658376693725586, -0.17961138486862183, 0.7452436195990371, 1707438728523968421
-0.034319937229156494, -0.28779977560043335, 0.7405743504928706, 1707438728534002037
0.027568936347961426, 0.29407578706741333, 0.6125232998681598, 1707438728546083594
-0.2337191104888916, 0.3371807336807251, 0.9244170261244288, 1707438728554050591
-0.18754523992538452, 0.31231802701950073, 0.737476792436396, 1707438728564099098
-0.27292442321777344, -0.40550798177719116, 0.7440070074052574, 1707438728574084311
0.46180111169815063, -0.21617698669433594, 0.7581016413778239, 1707438728584060428
0.47773122787475586, 1.215093970298767, 0.7630675700236028, 1707438728594089721
-0.20120394229888916, 0.7219458222389221, 0.7648046660902411, 1707438728604094467
-0.16382718086242676, -0.12704885005950928, 0.7716763399043143, 1707438728614118654
0.16235047578811646, -0.38065439462661743, 0.6723817858945912, 1707438728625670628
-0.15902727842330933, 0.048062920570373535, 0.9267530675042983, 1707438728634076568
-0.27240824699401855, 1.0654916763305664, 0.7684234461465442, 1707438728644158852
-0.35623282194137573, 0.5339457392692566, 0.7420175137078933, 1707438728654435407
-0.023815572261810303, -0.4421294331550598, 0.7907896664719294, 1707438728664121465
0.37672436237335205, 0.1343214511871338, 0.7667599254946075, 1707438728674229596
0.4423609972000122, 0.5952836275100708, 0.7865894872099416, 1707438728684139595
0.010191500186920166, 0.8799654841423035, 0.7826914277500377, 1707438728694160224
-0.566323459148407, 0.13664096593856812, 0.740450965166232, 1707438728704715064
-0.22805148363113403, -0.7607319951057434, 0.8332900407080773, 1707438728714199004
0.36257117986679077, 0.18334585428237915, 0.7832581549144076, 1707438728724394474
0.2449558973312378, 0.8252847194671631, 0.7947478710662873, 1707438728734245955
-0.2681702971458435, 0.16628295183181763, 0.7752640655696984, 1707438728744193376
-0.22437560558319092, -0.07423263788223267, 0.760460530179391, 1707438728754257121
0.20917320251464844, -0.2988572120666504, 0.7652944747806639, 1707438728764279628
0.38527911901474, 0.732301652431488, 0.7683137009991873, 1707438728774247268
0.08404284715652466, 0.8918492197990417, 0.6297872581716121, 1707438728786099531
-0.09212028980255127, -0.2159983515739441, 0.9104612278452391, 1707438728794255332
-0.14649879932403564, -0.32468199729919434, 0.7247194227387929, 1707438728804591338
-0.09816145896911621, 0.1713314652442932, 0.611843377219639, 1707438728816774654
0.017085909843444824, 0.532678484916687, 0.983947053654837, 1707438728824292320
0.06433451175689697, 0.7045729160308838, 0.7240094121236338, 1707438728834337901
-0.22130239009857178, -0.30114245414733887, 0.7292845530014269, 1707438728844332018
0.027181565761566162, -0.06934553384780884, 0.7383379283776271, 1707438728854355902
0.00519031286239624, 0.7488723397254944, 0.6242890869510032, 1707438728866199386
-0.2090141773223877, 0.21625763177871704, 0.91504497553237, 1707438728874355382
-0.27619117498397827, -0.10805809497833252, 0.8385833351734328, 1707438728883408702
-0.04990321397781372, -0.2619432806968689, 0.627691824638568, 1707438728895795688
0.06621307134628296, 0.09208697080612183, 0.9162654530329339, 1707438728904444665
0.07061803340911865, 1.0888794660568237, 0.7801124053079738, 1707438728914479693
-0.11781370639801025, 0.34693455696105957, 0.7735355066987614, 1707438728924543045
0.03913700580596924, 0.05046361684799194, 0.7842022994574916, 1707438728934565246
-0.21405988931655884, 0.48195791244506836, 0.6961423941202064, 1707438728945794751
0.23154425621032715, 1.3604376316070557, 0.8901005605898029, 1707438728954453007
0.20025593042373657, 0.11486566066741943, 0.7483174437931641, 1707438728964478846
0.17482751607894897, -0.7842414975166321, 0.7394183066475503, 1707438728974560458
0.09703081846237183, 0.13439732789993286, 0.7677587154567616, 1707438728984501588
0.2334938645362854, 0.46155846118927, 0.7545387271185613, 1707438728994551806
0.07601773738861084, 0.19054490327835083, 0.7321711847026975, 1707438729004624858
-0.4286794066429138, -0.18760401010513306, 0.723358887159826, 1707438729014556895
0.010637223720550537, -0.231406569480896, 0.6283946401016833, 1707438729025972644
0.4843484163284302, 0.7661550641059875, 0.8564825200629539, 1707438729034535554
0.10818469524383545, 0.6320866942405701, 0.7249621967306492, 1707438729044620151
-0.42318928241729736, -0.14613807201385498, 0.5704779881374854, 1707438729057443388
-0.31601446866989136, 0.13898611068725586, 1.0318602311272014, 1707438729064624674
-0.22723746299743652, 0.22286325693130493, 0.7458463254913914, 1707438729074631598
-0.1942533254623413, 0.5484921336174011, 0.7510199042360877, 1707438729084645670
-0.11145859956741333, 0.341583251953125, 0.7405940538791409, 1707438729094606177
-0.055547893047332764, -0.1792442798614502, 0.6487880384763988, 1707438729105733500
0.24864816665649414, 0.5200798511505127, 0.804924583151419, 1707438729114669590
0.1939014196395874, 0.4349561929702759, 0.7846445900704574, 1707438729123720785
-0.049150943756103516, -0.1146392822265625, 0.5129077484125636, 1707438729137512478
0.03377574682235718, 0.004813432693481445, 1.1555206882654052, 1707438729143685159
-0.32848483324050903, -0.2202736735343933, 0.6544349440606839, 1707438729154730785
-0.0008469820022583008, 0.08056175708770752, 0.7280408882745496, 1707438729164800652
0.3013693690299988, 0.5340960621833801, 0.7284723906846797, 1707438729174740178
0.1818077564239502, 0.20716309547424316, 0.6225671648949267, 1707438729186190924
-0.08160996437072754, 0.5508420467376709, 0.8317358202349566, 1707438729194722749
-0.1541234850883484, 0.5282161831855774, 0.6885267092399404, 1707438729204935364
-0.03203737735748291, 0.3489243984222412, 0.6005172221369836, 1707438729216699947
-0.24326175451278687, 0.3067197799682617, 0.8900152768261138, 1707438729224770314
-0.14009958505630493, -0.22824573516845703, 0.7369125476743578, 1707438729234815583
0.5867379307746887, -0.21325820684432983, 0.7627021711587152, 1707438729244836691
0.5521121621131897, 0.2143734097480774, 0.7512360882678036, 1707438729254843448
-0.33352237939834595, 0.24157994985580444, 0.6681116592770567, 1707438729265741687
-0.3560314178466797, 0.6352729201316833, 0.7789203510355698, 1707438729274817950
-0.25151515007019043, 0.1876767873764038, 0.6680719638890628, 1707438729285135956
0.25108224153518677, -0.031668126583099365, 0.5451824522309701, 1707438729297792476
0.3378133177757263, 0.5784656405448914, 0.9573951670671651, 1707438729304996131
-0.0869971513748169, 0.20314258337020874, 0.6994306827888989, 1707438729314901862
-0.1466047167778015, -0.19913721084594727, 0.6987336667478473, 1707438729324958233
-0.23218750953674316, -0.2166016697883606, 0.7070918143314087, 1707438729334882855
-0.35667312145233154, 0.12369775772094727, 0.6997461236121262, 1707438729354970417
-0.07234114408493042, 0.391948938369751, 0.6970845679092716, 1707438729365096020
0.21414101123809814, -0.09805619716644287, 0.5526901621861892, 1707438729378158408
0.41562873125076294, 0.4861410856246948, 1.0650726973029185, 1707438729384950170
-0.02864682674407959, 0.5642725229263306, 0.7111045591495809, 1707438729394962792
-0.314119815826416, 0.36212384700775146, 0.6937883310341049, 1707438729405047632
-0.3083276152610779, -0.21495825052261353, 0.6770494139338392, 1707438729415219356
-0.18152546882629395, -0.4301791787147522, 0.6521781994958122, 1707438729425716774
0.12049615383148193, 0.8514933586120605, 0.7015367327616824, 1707438729435264140
0.18393611907958984, -0.4905688762664795, 0.666040114603894, 1707438729445216501
0.4746541976928711, -0.6319037675857544, 0.5253434268073465, 1707438729458231244
-0.22505688667297363, 0.12472885847091675, 1.0089592259329547, 1707438729465218192
-0.2546505331993103, 1.4114457368850708, 0.7202243216897185, 1707438729475038536
-0.19889789819717407, 0.8487943410873413, 0.682670231044933, 1707438729485134854
0.1461048722267151, -0.732080340385437, 0.6859862200180684, 1707438729495047737
0.4821198582649231, -0.09792280197143555, 0.6264480952954786, 1707438729506246243
-0.01606994867324829, 1.119006633758545, 0.7863948725340184, 1707438729515303783
-0.2444075345993042, 0.5705476403236389, 0.7107950852109385, 1707438729525158321
-0.34681010246276855, -0.6813744902610779, 0.5300045891548988, 1707438729538075742
-0.33257198333740234, -0.611315906047821, 0.9513521426523363, 1707438729545157759
0.13570517301559448, 0.7607893943786621, 0.681594638006079, 1707438729555171618
0.18026131391525269, 1.4913917779922485, 0.6793876074990501, 1707438729565243335
-0.00684279203414917, -0.3534278869628906, 0.6931257228515282, 1707438729575178301
0.2822919487953186, -0.7763597965240479, 0.6596547885897461, 1707438729586045152
0.1760793924331665, 0.37829017639160156, 0.7891589795062411, 1707438729595210894
-0.3432144522666931, 0.9920694231987, 0.7083960648138057, 1707438729605221442
-0.539275586605072, 0.29875415563583374, 0.5468174424499256, 1707438729617843228
-0.16539138555526733, -0.7468127012252808, 0.9173786099129833, 1707438729625230410
0.2664187550544739, -0.07492941617965698, 0.6858262204694633, 1707438729635229268
0.38279926776885986, 1.4546568393707275, 0.6823060638615194, 1707438729645261034
-0.28905194997787476, 0.5935677289962769, 0.6756325279922358, 1707438729655295207
-0.17119228839874268, -0.6365700364112854, 0.6584758760401821, 1707438729665737661
-0.02075016498565674, -0.2637884020805359, 0.7305304677389054, 1707438729675291813
-0.081043541431427, 0.5682023763656616, 0.6907252870834355, 1707438729685512069
0.13373243808746338, 1.022789716720581, 0.5455514015893975, 1707438729698217522
0.0943068265914917, -0.14167922735214233, 0.9401387218085678, 1707438729705340077
0.1627369523048401, -0.651323139667511, 0.6708222298550328, 1707438729715331085
0.025325298309326172, 0.6513594388961792, 0.6638918553432845, 1707438729725381689
-0.1903972625732422, 0.8281290531158447, 0.6620798095835724, 1707438729735319455
0.15935224294662476, -0.09679484367370605, 0.7140599163573761, 1707438729744715290
0.10761404037475586, -0.43305444717407227, 0.6467159646585149, 1707438729755380124
0.0222281813621521, -0.03232783079147339, 0.7024567016507974, 1707438729765370164
0.207474946975708, 1.0182338953018188, 0.5531107210517665, 1707438729777848897
-0.5051065683364868, 0.37523823976516724, 1.0183472647165746, 1707438729784412350
-0.5097293257713318, -0.7082974314689636, 0.6694352161045471, 1707438729794432860
0.11512631177902222, 0.49712449312210083, 0.672146626958887, 1707438729804486441
0.6016908884048462, 1.030544638633728, 0.6182342362090139, 1707438729815431278
0.42730391025543213, 0.5559037327766418, 0.635821222959864, 1707438729826208046
-0.058645665645599365, -0.20319616794586182, 0.834313554230913, 1707438729834449902
-0.21814340353012085, -0.47371768951416016, 0.6353311195314764, 1707438729845460781
0.022708594799041748, 0.6143321990966797, 0.5590575438185369, 1707438729857856588
-0.10264503955841064, 0.8238712549209595, 0.8728132459701908, 1707438729865515853
-0.35580170154571533, -0.5818920135498047, 0.6781028390314392, 1707438729875494318
0.22348785400390625, -0.3694748878479004, 0.6845442788350332, 1707438729885597764
-0.11068969964981079, 0.14331024885177612, 0.6958915404998909, 1707438729895536528
0.34949392080307007, 0.6881412863731384, 0.634621504563837, 1707438729906291052
-0.31057077646255493, 0.6123504042625427, 0.7230803919728224, 1707438729915575336
-0.09862184524536133, -0.3904309868812561, 0.7513564972117782, 1707438729924672859
0.4140234589576721, 0.36655890941619873, 0.5253449931018682, 1707438729937766148
0.0025260448455810547, 0.13654714822769165, 0.8364552820786928, 1707438729945833976
-0.33859288692474365, 0.03298604488372803, 0.6565306163360729, 1707438729956113199
-0.08338361978530884, 0.018318355083465576, 0.7012959518940429, 1707438729965670892
-0.15785300731658936, 0.18894320726394653, 0.6671768851739684, 1707438729975659628
-0.10465610027313232, 0.3405345678329468, 0.6494309866210985, 1707438729985861481
-0.5000775456428528, -0.4724957346916199, 0.7418358962835342, 1707438729994691428
0.12151765823364258, 0.37704193592071533, 0.5962665977013952, 1707438730005768564
0.6176799535751343, 0.7919837236404419, 0.48905086292010025, 1707438730018968121
0.08868348598480225, -0.009569644927978516, 1.0859201815867372, 1707438730024695970
0.169761061668396, -0.008484303951263428, 0.5618294047744158, 1707438730035935521
-0.6074779033660889, 0.2860408425331116, 0.6616955824436034, 1707438730045736639
-0.27335166931152344, 0.5432808995246887, 0.6465581277076871, 1707438730055942388
-0.3716391324996948, 0.4507996439933777, 0.6683141186971286, 1707438730065820894
-0.27326279878616333, -0.28633373975753784, 0.6650212796687265, 1707438730075736490
0.8464102745056152, 0.010545551776885986, 0.6762905373956225, 1707438730085759671
0.7961359620094299, 0.5898937582969666, 0.5580003188865533, 1707438730097903336
-0.0006020069122314453, 0.4385666251182556, 0.8393463086897333, 1707438730105788135
-0.6647388339042664, 0.20812278985977173, 0.6384154988113165, 1707438730116003880
-0.2710825800895691, -0.20928287506103516, 0.6547428472678019, 1707438730125835441
-0.16874557733535767, -0.07600313425064087, 0.6535032414045834, 1707438730135813759
0.3792230486869812, 0.9126358032226562, 0.6280989609054868, 1707438730146308666
0.29134392738342285, 0.33461713790893555, 0.6978508190596975, 1707438730155824366
0.514274537563324, -0.2799454927444458, 0.6759309369312179, 1707438730165897728
0.20825648307800293, 0.06297940015792847, 0.5570918399474308, 1707438730178096941
-0.5230828523635864, 0.6153173446655273, 0.8538921420508856, 1707438730185899319
-0.27607452869415283, 0.7972837090492249, 0.6521028789895246, 1707438730195914323
-0.339072048664093, -0.32225775718688965, 0.6329882944032332, 1707438730206025337
0.001467883586883545, -0.68485027551651, 0.6508803080928535, 1707438730215929124
0.2520425319671631, 0.6080526113510132, 0.640937049279565, 1707438730225984532
-0.0364651083946228, 1.0975031852722168, 0.6349176996691343, 1707438730235930075
-0.11963832378387451, 0.09559524059295654, 0.6264727177419739, 1707438730245942526
-0.19329231977462769, -0.29216986894607544, 0.5245805552001184, 1707438730257909498
-0.12879377603530884, 0.2231953740119934, 0.7910792714922039, 1707438730265968290
0.08794409036636353, 1.0202853679656982, 0.6375162874392445, 1707438730276013107
-0.07810407876968384, 0.12104886770248413, 0.6326376695589062, 1707438730286035335
0.1553037166595459, -0.9539585113525391, 0.6496949397909128, 1707438730296001435
0.361711323261261, 0.17121374607086182, 0.6504718573904341, 1707438730306039795
-0.3918191194534302, 0.962925910949707, 0.6398649016169026, 1707438730316008295
-0.5363581776618958, 0.18948441743850708, 0.6256015499808247, 1707438730326026384
0.093097984790802, -0.1213979721069336, 0.5110736318856457, 1707438730338177332
0.28276127576828003, 0.1507408618927002, 0.8030142771980863, 1707438730346051881
0.37781858444213867, 1.2075172662734985, 0.6410822142057343, 1707438730356089539
-0.27097123861312866, 0.5599638223648071, 0.5521938958839886, 1707438730367702818
0.16063588857650757, -0.8536437749862671, 0.7751341849035582, 1707438730376119860
0.3827941417694092, -0.21032965183258057, 0.6540538832117923, 1707438730386160562
-0.29257863759994507, 0.8715570569038391, 0.6474006982518599, 1707438730396120401
-0.6145164966583252, 0.30131733417510986, 0.6389076774738588, 1707438730406147175
0.041787564754486084, -0.5170329809188843, 0.5493467779617334, 1707438730417861633
0.09603339433670044, -0.30088645219802856, 0.785979037793365, 1707438730426212338
0.31425440311431885, 1.1077921390533447, 0.6500111334986354, 1707438730436382389
-0.09685897827148438, -0.680252730846405, 0.5274701017638038, 1707438730448840043
-0.16990584135055542, -0.21439844369888306, 0.8892242616984175, 1707438730456351538
-0.4228988289833069, 0.9481704831123352, 0.6663501888623665, 1707438730466456427
-0.3615017533302307, 0.7712513208389282, 0.680212618598873, 1707438730476202259
-0.04799759387969971, -0.19085443019866943, 0.6508005733262145, 1707438730486229197
0.41488873958587646, -0.5523243546485901, 0.5543980188342896, 1707438730497855331
0.45023632049560547, 0.3416999578475952, 0.7803717806096059, 1707438730506232461
-0.33878040313720703, 1.1431267261505127, 0.6460725256253819, 1707438730516292147
-0.6537741422653198, -0.3089630603790283, 0.5049778464327295, 1707438730528722483
0.17760318517684937, 0.013081192970275879, 0.826970600482074, 1707438730536258235
0.49931246042251587, 0.5706372857093811, 0.6198593226494763, 1707438730546347169
0.34161776304244995, 0.3246087431907654, 0.6337591200104661, 1707438730556272636
-0.3759336471557617, -0.1740468144416809, 0.6273868863751235, 1707438730566365184
-0.11902755498886108, -0.43416857719421387, 0.5233647494225032, 1707438730578431931
-0.01227647066116333, 0.053846895694732666, 0.8020939878507036, 1707438730586340977
-0.3308261036872864, 0.9795752763748169, 0.6008811101781161, 1707438730596627449
-0.11914104223251343, 0.33973199129104614, 0.5305181125220992, 1707438730607892581
0.7898308038711548, -0.07835632562637329, 0.6938328836246339, 1707438730616618719
0.369756281375885, 0.23867052793502808, 0.6304272746858114, 1707438730626434158
-0.44837242364883423, 0.5172171592712402, 0.626198034927949, 1707438730636466940
-0.20697295665740967, 0.5421140193939209, 0.6301810619020968, 1707438730646402431
-0.137920081615448, -0.383389949798584, 0.5203233449484941, 1707438730658222141
0.1952965259552002, -0.17350608110427856, 0.8541824189350646, 1707438730665423632
0.0646066665649414, 0.7895699739456177, 0.5459541110309929, 1707438730676444239
-0.20469844341278076, 0.35086339712142944, 0.4721820007709515, 1707438730688890746
0.08150601387023926, -0.1561262011528015, 0.9209478727618445, 1707438730695458442
0.06352287530899048, 0.12026816606521606, 0.567779108366956, 1707438730706555763
-0.07857084274291992, 0.3479447364807129, 0.6518853129994856, 1707438730716524715
0.15285027027130127, 0.44317203760147095, 0.654795889197784, 1707438730726498261
0.09189373254776001, -0.18828094005584717, 0.5776655392719106, 1707438730737774507
-0.14067286252975464, -0.1353449821472168, 0.753268485390998, 1707438730746520840
-0.09006685018539429, 0.6208137273788452, 0.6402267967223384, 1707438730756583792
-0.17831361293792725, 0.6807558536529541, 0.4882599687044733, 1707438730769278583
-0.23888081312179565, 0.19433319568634033, 0.8284338226136629, 1707438730776593247
0.24731582403182983, 0.17166846990585327, 0.5899798412236308, 1707438730786629211
0.4133051633834839, 0.1154593825340271, 0.5891061731371017, 1707438730796652132
0.294922411441803, 0.4455971121788025, 0.5957843928481246, 1707438730806787703
-0.6325279474258423, 0.1009058952331543, 0.5535155970115131, 1707438730817919006
0.017075002193450928, -0.27766549587249756, 0.7162197265331199, 1707438730826635533
0.3988521695137024, 0.1875186562538147, 0.6098724250561248, 1707438730836809456
0.005888938903808594, 0.16462469100952148, 0.6165925761157472, 1707438730856670507
-0.41318410634994507, 0.8871431350708008, 0.6604212562896945, 1707438730865756068
-0.5426633358001709, 0.2384846806526184, 0.5480038860548755, 1707438730876737399
-0.24170422554016113, 0.16513925790786743, 0.6878620994358936, 1707438730885690591
0.44495123624801636, 0.04460674524307251, 0.5199237089257367, 1707438730898018934
0.8020431995391846, -0.09894734621047974, 0.7564179225951013, 1707438730906722724
0.17691057920455933, 0.4717790484428406, 0.6401640437811481, 1707438730916778055
-0.5108384490013123, 0.423719584941864, 0.5267247350206438, 1707438730928735914
-0.45368677377700806, -0.2581850290298462, 0.7732540499907832, 1707438730936828088
-0.100227952003479, 0.09237641096115112, 0.6093917051863756, 1707438730946879756
0.3805420398712158, 0.697306752204895, 0.5989165486519301, 1707438730957029024
0.3361535668373108, 0.021446406841278076, 0.6192426660040314, 1707438730966886686
0.01204526424407959, -0.46036678552627563, 0.5489352278405878, 1707438730978244375
0.004182755947113037, 0.6957076787948608, 0.7494055186719939, 1707438730986820207
-0.523683488368988, 0.6961095929145813, 0.634658863889832, 1707438730996871639
-0.25789874792099, -0.223488450050354, 0.48723294438517967, 1707438731009822785
0.10578298568725586, -0.03443259000778198, 0.89827336625701, 1707438731016844590
0.3437875509262085, 0.4374113082885742, 0.6088671670515006, 1707438731027132557
0.021151304244995117, 0.8479278087615967, 0.6436233133505723, 1707438731036912921
-0.29940366744995117, -0.19092577695846558, 0.6231040530449606, 1707438731046929059
-0.005263566970825195, -0.7152189612388611, 0.5577384379790713, 1707438731057978105
0.7139050364494324, 0.9357116222381592, 0.6782327890639048, 1707438731066938511
0.47704386711120605, 1.1847803592681885, 0.5817719393005744, 1707438731076923250
-0.06246238946914673, -0.2326546311378479, 0.48203622913986377, 1707438731088761639
-0.1117868423461914, -0.707359790802002, 0.7102819097065367, 1707438731096921252
-0.33205646276474, 0.18377280235290527, 0.586957556982832, 1707438731106977511
-0.35012900829315186, 0.9720237255096436, 0.6011123650218145, 1707438731116986550
-0.3658710718154907, 0.2562887668609619, 0.5911258231814662, 1707438731126966358
-0.2822275757789612, -0.643242597579956, 0.5010584054606981, 1707438731138464537
0.3255833387374878, 0.6744408011436462, 0.6737530890264016, 1707438731146991375
-0.023958861827850342, 1.0577985048294067, 0.5639704200843013, 1707438731157015648
-0.15682417154312134, -0.14257991313934326, 0.4241502160200826, 1707438731170377101
0.2873724102973938, -0.5103159546852112, 0.8602103682992438, 1707438731177076175
-0.1708594560623169, 0.2169666886329651, 0.5824853190201279, 1707438731187098987
-0.43286269903182983, 0.9872678518295288, 0.5909371270066088, 1707438731197143045
-0.26248252391815186, 0.2621338963508606, 0.5771841676984246, 1707438731207328300
0.5841034054756165, -0.6951995491981506, 0.5570098116529313, 1707438731217962264
0.9793557524681091, 0.39946508407592773, 0.661913551442875, 1707438731227118165
-0.12036192417144775, 0.9750484824180603, 0.5852382704985281, 1707438731237332881
-0.45908111333847046, -0.0261307954788208, 0.4614961787793291, 1707438731250088761
0.11376523971557617, -0.6302464008331299, 0.828738666177144, 1707438731257172385
-0.34082090854644775, 0.06063050031661987, 0.5937474725882779, 1707438731267196449
-0.4298659563064575, 0.8116164207458496, 0.6066893005385311, 1707438731277204636
0.13222360610961914, 0.6190897822380066, 0.610715173335823, 1707438731287190795
0.5666744112968445, -0.21937817335128784, 0.5632355779706947, 1707438731298293138
0.19575917720794678, 0.5204614400863647, 0.7029369509847838, 1707438731307317655
-0.3311504125595093, 1.1005759239196777, 0.6061210349443318, 1707438731317448044
0.004654824733734131, -0.08338409662246704, 0.5277885248582072, 1707438731328751277
0.23760640621185303, -0.4393669366836548, 0.6896511987462799, 1707438731337274306
-0.182325541973114, 0.10650873184204102, 0.5870947006542944, 1707438731347325094
-0.090567946434021, 0.3518070578575134, 0.6001059371312321, 1707438731357265538
0.11517387628555298, 0.09123194217681885, 0.58820719688536, 1707438731367314901
0.028693675994873047, -0.6923202872276306, 0.5649052921741446, 1707438731377855205
0.037119269371032715, 0.3795301914215088, 0.627985437026323, 1707438731387327323
-0.041972577571868896, 1.1932803392410278, 0.5801871974438491, 1707438731397339447
-0.05826514959335327, 0.022385895252227783, 0.4667135685970843, 1707438731409946113
0.049811482429504395, -0.1043471097946167, 0.8003581972771417, 1707438731417416157
-0.27526432275772095, 0.25202763080596924, 0.5937784824432913, 1707438731427475457
-0.135475754737854, 0.6379786729812622, 0.597486419952506, 1707438731437348844
-0.05524200201034546, 0.4245169162750244, 0.5642340353732633, 1707438731447499396
-0.13411790132522583, -0.3562202453613281, 0.544343852847538, 1707438731457990643
-0.12044960260391235, 0.6210856437683105, 0.5905136604288591, 1707438731467579995
-0.393252432346344, -0.10085773468017578, 0.6093974182255354, 1707438731476724544
0.11320793628692627, -0.01799696683883667, 0.42808274149300723, 1707438731490133196
0.5559768676757812, 0.21759408712387085, 0.8005619246519551, 1707438731497511957
0.2769165635108948, 0.26484251022338867, 0.5858256950076434, 1707438731507762481
0.23500007390975952, 0.34313756227493286, 0.6212589022087762, 1707438731517490049
-0.17434412240982056, -0.0006876587867736816, 0.5952054335874256, 1707438731527454479
-0.22414559125900269, 0.23295056819915771, 0.5542080570422605, 1707438731538095104
-0.21771550178527832, 0.7876490354537964, 0.6910267549235781, 1707438731546491749
-0.2584574222564697, 0.1410805583000183, 0.5617910019790139, 1707438731556524854
0.23896527290344238, 0.04118591547012329, 0.45736202144748844, 1707438731568837747
-0.0804092288017273, -0.05675673484802246, 0.7290286403094337, 1707438731576555809
-0.1543683409690857, 0.39451926946640015, 0.5075010898458345, 1707438731587831877
0.2658640146255493, 0.9326419830322266, 0.5971851314846464, 1707438731597604516
0.24957478046417236, -0.0800979733467102, 0.6371098510974168, 1707438731606679642
0.26568692922592163, -0.4942455291748047, 0.5280680608508665, 1707438731617689411
-0.14142131805419922, 0.29393649101257324, 0.5898990751904271, 1707438731627572352
-0.31785476207733154, 0.3807043433189392, 0.5752205819674687, 1707438731637616292
-0.3193594217300415, 0.45726466178894043, 0.5131108210392114, 1707438731648783244
-0.1877307891845703, 0.23088979721069336, 0.6350322781981076, 1707438731657639079
-0.08712601661682129, -0.027637064456939697, 0.5722746166324876, 1707438731667644094
0.8184850215911865, 0.2687193751335144, 0.5863151674320755, 1707438731677717060
0.07025480270385742, 0.11291593313217163, 0.5957174682632195, 1707438731687662450
-0.4442911148071289, 0.39907610416412354, 0.5519484639937868, 1707438731698386275
-0.40845048427581787, 0.5253451466560364, 0.697021153582668, 1707438731706702959
-0.3636288046836853, -0.28732091188430786, 0.5063950620145794, 1707438731717870878
0.7265394330024719, -0.013823330402374268, 0.46676332638583773, 1707438731729798483
0.14722567796707153, 0.5461832284927368, 0.6816578630966035, 1707438731737717390
0.12560439109802246, 0.10731291770935059, 0.5235232757756113, 1707438731748077563
0.24505460262298584, -0.022278130054473877, 0.5688522885735793, 1707438731757798174
0.05842047929763794, 0.06622582674026489, 0.5633029695151284, 1707438731767756315
-0.45766299962997437, 0.6270533204078674, 0.5636507614231676, 1707438731777946259
-0.16269797086715698, 0.43511563539505005, 0.5806408589347628, 1707438731787839391
0.16841059923171997, -0.4471709728240967, 0.5844752766723881, 1707438731797814155
0.08808624744415283, 0.08240514993667603, 0.47163985126847596, 1707438731810424067
-0.10432630777359009, 1.1154444217681885, 0.7790402406898352, 1707438731817904678
-0.35864347219467163, 0.4738392233848572, 0.5647735638496104, 1707438731828044646
0.003162682056427002, -0.15750247240066528, 0.5791129223159713, 1707438731837871271
0.03610730171203613, 0.15986120700836182, 0.5722509752438478, 1707438731847843398
0.11193591356277466, 0.6011877655982971, 0.5833307692910145, 1707438731857855508
0.18401598930358887, 0.37430620193481445, 0.5920908882394126, 1707438731867891824
-0.1288362741470337, -0.6852434277534485, 0.6024795610025054, 1707438731877930685
0.45950114727020264, -0.19127070903778076, 0.5095859224527683, 1707438731889799268
-0.19362491369247437, 1.009582281112671, 0.7181802245300473, 1707438731897900892
-0.38255828619003296, 0.02383178472518921, 0.5646761664029927, 1707438731907940508
-0.003083467483520508, -0.34596318006515503, 0.5562124404129692, 1707438731917961509
0.22404295206069946, 0.5241947174072266, 0.5450973367523765, 1707438731928021612
-0.0015856623649597168, 1.0274628400802612, 0.5205154556957655, 1707438731938597899
0.12212997674942017, 0.4387398958206177, 0.5810905904682436, 1707438731948081790
0.414841890335083, -0.7476603984832764, 0.5668623195119803, 1707438731958081939
-0.3697468638420105, 1.032037615776062, 0.48752070163019945, 1707438731970016118
-0.5819434523582458, -0.10167264938354492, 0.705376052030083, 1707438731978113199
0.3721063733100891, -0.7994811534881592, 0.5300081128129358, 1707438731988824885
0.1716076135635376, 0.21757125854492188, 0.6073821047302066, 1707438731998099078
-0.14239084720611572, 0.7090321779251099, 0.5531236787181035, 1707438732008043752
0.38297104835510254, 0.49790048599243164, 0.5055005768678809, 1707438732018807382
0.26346176862716675, -0.1820434331893921, 0.5422061415135334, 1707438732028751315
-0.3951982259750366, 0.17509007453918457, 0.5437355257164739, 1707438732038869561
-0.2581026554107666, 0.802804708480835, 0.5685814593134714, 1707438732048780307
-0.2688092589378357, -0.08219122886657715, 0.5637960225422809, 1707438732058741044
0.29571402072906494, -0.15781879425048828, 0.5630165887284566, 1707438732068841345
0.4552820324897766, 0.8099378347396851, 0.6115172597104082, 1707438732078167062
-0.058342695236206055, 0.5146453380584717, 0.5303066840450316, 1707438732088788000
0.3354579210281372, -0.17390888929367065, 0.5555214800908926, 1707438732098799349
-0.34222525358200073, -0.4305691123008728, 0.5392863932734044, 1707438732108861059
-0.49630165100097656, 0.5836705565452576, 0.5449169685118193, 1707438732118791736
-0.26302194595336914, 1.181787371635437, 0.4752827036750729, 1707438732130158055
0.2882682681083679, -0.2337791919708252, 0.632132537164164, 1707438732138791765
0.698415219783783, -0.6817170977592468, 0.5774785229114451, 1707438732148855653
0.061033666133880615, 0.4421513080596924, 0.500678319598949, 1707438732160901491
0.20946460962295532, 0.3874489665031433, 0.7513374980565262, 1707438732168819049
0.3769088387489319, -0.04968661069869995, 0.571307764622475, 1707438732178873569
-0.42112404108047485, 0.02647799253463745, 0.5551695231263457, 1707438732188853926
-0.5078997015953064, 0.5318067669868469, 0.5477005818702135, 1707438732198844155
-0.043290555477142334, 0.6485188603401184, 0.4861002655057405, 1707438732209806675
0.22966814041137695, -0.1449965238571167, 0.5717624191872469, 1707438732218855672
0.31380128860473633, -0.006402909755706787, 0.5164334038148409, 1707438732228924680
-0.16333627700805664, 0.5948092937469482, 0.4348238023762456, 1707438732240827917
-0.2706682085990906, -0.035970091819763184, 0.6452225676857416, 1707438732248906354
-0.3901386260986328, -0.2926778197288513, 0.5322020069911603, 1707438732258889341
-0.4852210283279419, 0.16928642988204956, 0.5346087423124193, 1707438732268992943
-0.10387259721755981, 0.3677743673324585, 0.5662099254506681, 1707438732278889822
0.638625979423523, 0.5452932119369507, 0.5192596746439057, 1707438732289955049
0.3726722002029419, 0.10799360275268555, 0.6443945733430695, 1707438732298867712
0.01597493886947632, 0.12954765558242798, 0.5623530349504271, 1707438732308918619
0.07853323221206665, 0.5154420137405396, 0.45668494996128145, 1707438732320963365
-0.3686180114746094, 0.06590276956558228, 0.6869172415819019, 1707438732328883420
-0.15187793970108032, -0.019893169403076172, 0.5375264464578513, 1707438732338944876
0.16890949010849, 0.30880284309387207, 0.5300224321332035, 1707438732348920211
0.3567163944244385, 0.2636261582374573, 0.5341546745050536, 1707438732358915382
0.31099218130111694, 0.22788399457931519, 0.4656169311625068, 1707438732370473940
0.06831026077270508, 0.09657919406890869, 0.6349873265864613, 1707438732378896218
0.05563771724700928, 0.03970903158187866, 0.5275985725466499, 1707438732389006721
0.21383261680603027, 0.43345338106155396, 0.4749811931796023, 1707438732400045753
-0.26603442430496216, 0.2085016965866089, 0.5909315955867259, 1707438732408919112
0.014842212200164795, 0.4503481388092041, 0.5232526284024095, 1707438732418982773
-0.23135000467300415, 0.4547494053840637, 0.5393678829091332, 1707438732428942901
-0.2403712272644043, -0.48050880432128906, 0.5593537117070185, 1707438732439023126
0.2021663784980774, -0.06619727611541748, 0.5138406030558662, 1707438732450164390
0.3977699875831604, 0.5901846289634705, 0.6392755423798993, 1707438732458948849
0.3239436149597168, 0.6837548017501831, 0.5344518505586753, 1707438732469181122
-0.3900694251060486, -0.3488287329673767, 0.4396443289700479, 1707438732481337448
-0.15534049272537231, 0.3045116662979126, 0.6951432946559998, 1707438732489103461
-0.1376880407333374, 0.763760507106781, 0.5382935086529047, 1707438732499090715
0.11981445550918579, -0.30573898553848267, 0.5407706137436112, 1707438732508940888
0.6726477742195129, -0.44168025255203247, 0.5434268012068306, 1707438732519001273
0.12594646215438843, 0.38068097829818726, 0.5082546542763421, 1707438732529861912
-0.5805104970932007, 0.8585920333862305, 0.6003610027146077, 1707438732538969222
-0.14883798360824585, 0.2750664949417114, 0.5330978990187027, 1707438732548979965
0.01707017421722412, -0.32144594192504883, 0.4197680449362555, 1707438732561416190
0.297654390335083, 0.4226677417755127, 0.7086755604766172, 1707438732568939198
0.003378927707672119, 1.043686032295227, 0.5333927018867127, 1707438732579020379
-0.0954553484916687, -0.17726045846939087, 0.5288540980856149, 1707438732588999943
-0.13670790195465088, -0.3906249403953552, 0.5188917829562767, 1707438732599053278
-0.17562466859817505, 0.6639968156814575, 0.47396193951088184, 1707438732609918995
0.18810617923736572, 0.3259693384170532, 0.5722324104473611, 1707438732618959283
0.3589308261871338, -0.3974781632423401, 0.52317454291254, 1707438732629072200
0.13901770114898682, -0.4765033721923828, 0.4618717834389841, 1707438732640707269
-0.60490882396698, 0.849942684173584, 0.6434737844547651, 1707438732649197063
-0.035680532455444336, 1.3033595085144043, 0.5452652297966556, 1707438732659024036
0.5318969488143921, -0.2818717360496521, 0.5296280484849946, 1707438732669011757
0.41077548265457153, -0.19912463426589966, 0.5389224997620469, 1707438732679108361
-0.3452538251876831, 0.6630650758743286, 0.5059314156820917, 1707438732689905667
-0.31634271144866943, 0.2685827612876892, 0.5871442808622096, 1707438732699042174
0.25541388988494873, -0.32125693559646606, 0.516007289721045, 1707438732709130410
-0.2583949565887451, 0.19590216875076294, 0.4042562143911989, 1707438732721754165
-0.057975947856903076, 0.6050990223884583, 0.7111019806101936, 1707438732729120724
0.41429901123046875, 0.24501609802246094, 0.5346974920745486, 1707438732739108271
0.4958740472793579, -0.38067418336868286, 0.5328758277081138, 1707438732749265382
-0.11895149946212769, 0.20265650749206543, 0.5550787255464912, 1707438732759240094
-0.5340967178344727, 0.5167245268821716, 0.5011687878809831, 1707438732770201832
-0.10718613862991333, -0.25731509923934937, 0.609657925419623, 1707438732779105170
0.0013905167579650879, -0.0013757944107055664, 0.5356954252900656, 1707438732789172494
-0.20476669073104858, 0.6300672292709351, 0.42093802334210095, 1707438732801773637
-0.014690041542053223, 0.4264717102050781, 0.7119567087515397, 1707438732809187630
0.689914345741272, 0.17561352252960205, 0.5287827528100316, 1707438732819207872
0.022456049919128418, 0.1112898588180542, 0.5328666540863247, 1707438732829289881
-0.23001372814178467, 0.6151391267776489, 0.5502353337573533, 1707438732839179939
0.1372382640838623, 0.28866302967071533, 0.49286137126085455, 1707438732849916035
0.10003107786178589, -0.6902172565460205, 0.5690032241119226, 1707438732859110010
-0.1847410798072815, -0.1713937520980835, 0.5185250008571132, 1707438732869228614
-0.24690943956375122, 0.6803563833236694, 0.44936006423073055, 1707438732880766435
0.2594224810600281, 0.12990272045135498, 0.5997939516424361, 1707438732889211130
0.5877073407173157, -0.0981937050819397, 0.49708128194635365, 1707438732899180433
0.1496766209602356, 0.2232491374015808, 0.4916556436039674, 1707438732909176912
-0.019872546195983887, 0.5963947772979736, 0.5006637865938903, 1707438732919184243
-0.10243648290634155, 0.3791930675506592, 0.4658460483160125, 1707438732930036844
-0.39934778213500977, -0.17678505182266235, 0.5576388825790992, 1707438732939182123
-0.09424930810928345, 0.19906985759735107, 0.51276057639647, 1707438732949193537
0.1471584439277649, 0.5804717540740967, 0.39912067948312874, 1707438732962174913
0.21477603912353516, -0.04696345329284668, 0.7414122838372854, 1707438732969253834
-0.12367379665374756, 0.503192663192749, 0.5055466466044714, 1707438732979515534
-0.2963349223136902, 0.09348446130752563, 0.5113673828252921, 1707438732989466927
-0.18326181173324585, -0.022361397743225098, 0.5250130819613891, 1707438732999278808
0.30489063262939453, 0.009703636169433594, 0.5014677966569323, 1707438733009917026
0.3466948866844177, 0.2621186375617981, 0.5957533263239115, 1707438733019402096
-0.10214275121688843, 0.277171790599823, 0.5837756715361528, 1707438733029297309
-0.19354921579360962, -0.10550743341445923, 0.44140798860271124, 1707438733042258692
0.021986663341522217, 0.21936488151550293, 0.806350049750123, 1707438733049296489
-0.07848304510116577, 0.5437126755714417, 0.5478631604916908, 1707438733059305486
0.015970468521118164, 0.32587558031082153, 0.5263412168368434, 1707438733069397885
0.27064526081085205, 0.4430640935897827, 0.5253280867132539, 1707438733079325119
-0.0789216160774231, -0.08833444118499756, 0.4599279346941597, 1707438733090464241
-0.06175035238265991, 0.08857095241546631, 0.5846073561377177, 1707438733099319544
0.09380471706390381, 0.2167428731918335, 0.5239221447293279, 1707438733109363213
0.10288828611373901, -0.20427870750427246, 0.42838817429232917, 1707438733121734439
0.16715997457504272, 0.05661511421203613, 0.6872000738428858, 1707438733129378647
-0.09155339002609253, 0.31015509366989136, 0.5048687022880026, 1707438733139430646
0.01780259609222412, 0.29244035482406616, 0.5015418478739622, 1707438733149442363
-0.46549874544143677, 0.5387093424797058, 0.5012975780382513, 1707438733159406644
-0.5512946248054504, -0.1756708025932312, 0.47338656936433177, 1707438733169869867
0.050012409687042236, 0.1722363829612732, 0.5274206440701555, 1707438733179386979
0.8840069770812988, 0.5579879879951477, 0.49668114349108206, 1707438733189428091
0.6309390068054199, 0.27458494901657104, 0.39761488558406344, 1707438733202006921
-0.18019825220108032, 0.27262169122695923, 0.6821317932427844, 1707438733209483810
-0.5130324363708496, 0.05522650480270386, 0.5103095061422032, 1707438733219487573
-0.39316266775131226, -0.21603548526763916, 0.5088890424222468, 1707438733229545582
-0.07953798770904541, 0.4234551191329956, 0.5075624583066402, 1707438733239465535
0.07344919443130493, 0.42321592569351196, 0.46962407288962255, 1707438733249962341
0.9517669081687927, -0.1262812614440918, 0.5226994246335469, 1707438733259475008
0.6733668446540833, 0.06180989742279053, 0.4922507765487195, 1707438733269581348
-0.13095545768737793, 0.4245098829269409, 0.395624047775371, 1707438733282214863
-0.42432862520217896, 0.45133721828460693, 0.6800409213810552, 1707438733289568855
-0.1607285737991333, -0.2120264768600464, 0.4961562629610345, 1707438733299581306
-0.21516597270965576, -0.08322525024414062, 0.5030026909048183, 1707438733309640783
-0.07398724555969238, 0.7856505513191223, 0.5587773393537444, 1707438733318755499
0.08926981687545776, 0.47127383947372437, 0.5029861121795015, 1707438733328837397
0.3420030474662781, -0.01410210132598877, 0.5236256566937096, 1707438733338570832
0.1744137406349182, 0.5026546120643616, 0.4600246801081331, 1707438733349647106
-0.5217000842094421, 0.2505960464477539, 0.4267189349996718, 1707438733361752193
-0.14133381843566895, -0.1942465901374817, 0.7410839677788744, 1707438733368787945
0.07946723699569702, -0.33333349227905273, 0.4822714636544287, 1707438733379667791
0.04671984910964966, 0.15377086400985718, 0.5252385754764182, 1707438733389832722
0.09991908073425293, 0.3210456371307373, 0.5425912675814384, 1707438733399632543
0.09555375576019287, 0.030023396015167236, 0.4950836400465911, 1707438733410230713
0.48214954137802124, 0.2632695436477661, 0.5461042898105741, 1707438733419731539
-0.24017471075057983, 0.9391757249832153, 0.5028860617520636, 1707438733429813389
-0.22626018524169922, 0.11564487218856812, 0.42392497772876664, 1707438733441769078
0.11838430166244507, -0.24544304609298706, 0.6355529523098941, 1707438733449844378
0.37626588344573975, 0.5040671229362488, 0.5074269956386274, 1707438733460025636
-0.43719422817230225, 0.4430224895477295, 0.5254335517925325, 1707438733469960946
-0.09542131423950195, -0.15500426292419434, 0.5238040239303648, 1707438733479898270
0.47691285610198975, 0.07899463176727295, 0.5087111909696915, 1707438733490122311
0.023489415645599365, 0.9301156401634216, 0.5344883412601171, 1707438733499857430
-0.1477489471435547, -0.0334433913230896, 0.5046636267521731, 1707438733509892187
0.4570547938346863, -0.15451467037200928, 0.42707597878963716, 1707438733521767535
-0.17167478799819946, 0.7251640558242798, 0.6295971868877019, 1707438733529922873
-0.3143768310546875, 0.34053105115890503, 0.50663172888158, 1707438733539928959
0.043700575828552246, -0.12306463718414307, 0.5049202981514994, 1707438733549971187
0.22743695974349976, 0.22948461771011353, 0.5014893465476932, 1707438733560091440
-0.17794984579086304, 0.44504600763320923, 0.5203848898686702, 1707438733569945578
-0.14271771907806396, 0.3874528408050537, 0.5206644753799772, 1707438733579877820
0.04934489727020264, -0.32275164127349854, 0.5056029903005961, 1707438733589957558
0.04628556966781616, 0.1899307370185852, 0.41499349172086364, 1707438733602511623
0.22969746589660645, 0.7343614101409912, 0.7139336116883798, 1707438733609990433
-0.07815742492675781, -0.37568074464797974, 0.5395400869700746, 1707438733619955009
0.6108158230781555, -0.17075830698013306, 0.5381772208573707, 1707438733630025133
-0.11865925788879395, 0.46599680185317993, 0.5325564296406076, 1707438733639972805
-0.5166910290718079, 0.29540175199508667, 0.5133399508540226, 1707438733650046470
0.009400129318237305, 0.2546825408935547, 0.5078524548412475, 1707438733659987804
0.050253212451934814, 0.12657463550567627, 0.4846289837607208, 1707438733670064249
0.3380510210990906, 0.2141627073287964, 0.4140216213016416, 1707438733681795211
-0.23950093984603882, 0.292463481426239, 0.5822107954622616, 1707438733690054427
-0.10125583410263062, -0.2991817593574524, 0.47730777520957596, 1707438733700040496
0.3882727026939392, 0.8506839871406555, 0.4717087263216897, 1707438733710140616
0.2604055404663086, 0.7641849517822266, 0.46769203215085137, 1707438733720045474
-0.016753435134887695, -0.679496169090271, 0.4638661314843656, 1707438733730217539
0.02209329605102539, -0.47873955965042114, 0.4890344033004166, 1707438733740268505
-0.27975332736968994, 0.16676783561706543, 0.5043869810842853, 1707438733750097624
-0.2620517611503601, 0.2587376832962036, 0.42363987604481185, 1707438733761799769
-0.1623905897140503, 0.2020878791809082, 0.5835286269025188, 1707438733770141402
-0.14413219690322876, 0.1252528429031372, 0.4841927317395749, 1707438733780138946
0.5710703730583191, 0.6029314398765564, 0.4841622275284402, 1707438733790282698
0.16279661655426025, 0.6080973744392395, 0.49725951571699933, 1707438733800118620
0.040678560733795166, -0.09956526756286621, 0.4892173111756054, 1707438733810196650
-0.18589246273040771, 0.10515135526657104, 0.49335480566350043, 1707438733820138155
-0.10915631055831909, 0.09510695934295654, 0.4800424757262298, 1707438733830224620
